seconds, accX, accY, accZ, temp
30,-0.06,1.00,0.14,50.02
30,0.00,1.00,0.14,46.78
30,-0.01,1.00,0.14,46.78
30,-0.07,0.99,0.13,45.44
30,-0.07,0.99,0.12,47.14
30,-0.09,1.00,0.12,46.95
30,-0.05,1.01,0.12,43.03
30,-0.05,1.00,0.13,45.05
30,-0.00,1.00,0.13,45.83
30,-0.01,0.99,0.13,45.83
30,-0.01,0.99,0.13,38.92
30,-0.06,0.99,0.18,44.81
30,-0.10,0.99,0.12,44.81
30,-0.12,1.01,0.11,42.66
30,-0.06,1.01,0.13,46.61
30,-0.02,1.00,0.13,46.61
30,-0.00,0.99,0.14,49.14
30,-0.00,1.00,0.14,42.12
30,-0.04,1.00,0.14,41.50
30,-0.08,1.00,0.12,43.07
30,-0.08,1.00,0.11,47.57
30,-0.07,1.00,0.11,42.25
30,-0.02,1.01,0.12,42.25
30,-0.05,1.00,0.13,45.05
30,0.01,1.00,0.13,45.48
30,-0.04,0.99,0.13,45.48
30,-0.09,0.99,0.13,42.24
30,-0.09,0.99,0.11,45.72
30,-0.09,0.99,0.11,46.00
30,-0.02,1.01,0.12,42.87
30,-0.02,1.01,0.13,47.11
30,0.01,1.01,0.13,49.25
30,-0.03,0.99,0.14,49.25
30,-0.03,0.99,0.12,46.02
30,-0.08,0.99,0.11,45.46
30,-0.10,1.00,0.11,45.46
30,-0.10,1.01,0.11,45.56
30,-0.04,1.01,0.12,43.49
30,0.00,1.01,0.12,43.49
30,-0.02,1.00,0.14,44.39
30,-0.02,0.94,0.13,39.56
30,-0.06,1.00,0.13,39.69
30,-0.09,1.00,0.11,44.39
30,-0.09,1.00,0.10,47.00
30,-0.05,1.00,0.10,42.00
30,-0.01,1.01,0.12,42.00
30,-0.05,0.99,0.15,47.51
30,0.01,0.99,0.13,50.47
30,-0.05,1.00,0.13,50.47
30,-0.09,0.99,0.12,44.20
30,-0.09,0.99,0.11,50.42
30,-0.07,1.01,0.11,50.81
30,-0.01,1.01,0.12,42.19
30,-0.01,1.00,0.13,45.95
30,0.01,1.00,0.13,41.67
30,-0.04,1.00,0.13,41.67
30,-0.04,0.99,0.12,47.62
30,-0.08,0.99,0.12,44.92
30,-0.08,0.99,0.12,44.92
30,-0.09,1.01,0.11,43.58
30,-0.03,1.01,0.13,45.96
30,-0.00,1.00,0.13,45.96
30,-0.03,1.00,0.14,47.51
30,-0.03,1.05,0.12,43.39
30,-0.08,0.99,0.12,43.73
30,-0.09,1.00,0.11,42.94
30,-0.09,1.01,0.12,43.11
30,-0.04,1.01,0.12,43.25
30,0.00,1.00,0.13,43.25
30,0.05,1.00,0.14,47.37
30,-0.01,1.00,0.13,43.74
30,-0.07,1.00,0.13,43.74
30,-0.09,1.00,0.11,44.27
30,-0.09,1.00,0.12,41.58
30,-0.04,1.01,0.12,42.14
30,-0.00,1.00,0.12,42.14
30,-0.00,1.00,0.14,44.57
30,-0.00,1.00,0.14,45.99
30,-0.06,1.00,0.14,45.99
30,-0.03,1.00,0.12,47.89
30,-0.09,1.00,0.11,50.90
30,-0.06,1.01,0.11,50.90
30,-0.01,1.01,0.13,40.91
30,-0.01,1.01,0.14,42.58
30,-0.00,1.00,0.14,42.58
30,-0.04,1.00,0.14,42.63
30,-0.04,1.00,0.12,41.05
30,-0.09,1.00,0.12,41.16
30,-0.08,1.00,0.11,46.65
30,-0.08,1.01,0.12,45.57
30,-0.02,1.01,0.12,39.74
30,0.00,1.00,0.13,39.74
30,0.04,0.99,0.14,42.75
30,-0.03,0.99,0.18,42.81
30,-0.08,0.99,0.12,42.81
30,-0.09,0.99,0.11,44.42
30,-0.09,0.99,0.11,44.99
30,-0.04,1.00,0.11,45.08
30,0.01,1.00,0.12,45.86
30,0.01,1.00,0.15,43.55
30,-0.02,1.00,0.15,47.32
30,-0.07,1.00,0.12,47.32
30,-0.09,1.00,0.11,48.20
30,-0.09,1.00,0.11,43.95
30,-0.05,1.00,0.11,43.95
30,-0.00,1.01,0.13,49.06
30,-0.00,1.01,0.13,42.28
30,-0.01,1.00,0.13,42.28
30,-0.06,1.00,0.14,42.19
30,-0.06,0.94,0.12,46.17
30,-0.09,1.00,0.12,46.20
30,-0.05,1.00,0.11,43.85
30,-0.05,1.01,0.14,50.79
30,-0.01,1.01,0.14,48.68
30,0.01,1.00,0.14,48.68
30,0.02,0.99,0.14,41.85
30,-0.05,0.99,0.11,41.21
30,-0.09,0.99,0.11,41.21
30,-0.07,1.00,0.12,49.81
30,-0.07,1.00,0.11,48.65
30,-0.02,1.01,0.11,48.64
30,0.01,1.00,0.13,47.07
30,0.01,0.99,0.13,41.20
30,-0.04,0.99,0.13,41.28
30,-0.08,1.00,0.12,41.28
30,-0.09,1.00,0.12,47.40
30,-0.09,1.00,0.12,49.11
30,-0.04,1.00,0.12,49.11
30,-0.00,1.00,0.13,51.71
30,-0.00,1.00,0.13,47.91
30,-0.02,0.99,0.13,47.91
30,-0.07,0.99,0.13,45.57
30,-0.07,0.94,0.11,41.19
30,-0.08,1.00,0.11,40.96
30,-0.04,1.01,0.13,43.31
30,-0.04,1.01,0.12,49.55
30,-0.00,1.01,0.12,43.07
30,-0.00,1.00,0.14,43.07
30,-0.06,1.00,0.13,44.28
30,-0.06,1.00,0.19,49.09
30,-0.09,0.99,0.12,49.09
30,-0.06,1.00,0.11,45.99
30,-0.06,0.94,0.12,47.41
30,-0.00,1.00,0.12,47.55
30,0.00,1.00,0.13,42.06
30,0.00,0.99,0.14,42.32
30,-0.05,0.99,0.14,45.06
30,-0.09,1.00,0.11,45.06
30,-0.07,1.00,0.12,42.26
30,-0.07,1.00,0.11,46.70
30,-0.01,1.00,0.11,46.70
30,-0.00,1.00,0.13,49.35
30,-0.00,1.00,0.14,45.94
30,-0.04,1.00,0.14,45.94
30,-0.08,0.99,0.12,51.54
30,-0.08,0.94,0.11,41.46
30,-0.08,1.00,0.11,41.71
30,-0.03,1.01,0.12,45.63
30,-0.03,1.00,0.14,46.23
30,0.00,1.00,0.14,47.18
30,-0.03,0.99,0.14,47.18
30,-0.01,0.99,0.13,42.49
30,-0.07,0.99,0.12,44.97
30,-0.09,1.00,0.12,44.97
30,-0.04,1.00,0.11,46.03
30,-0.04,1.00,0.13,47.07
30,0.00,1.00,0.13,47.20
30,-0.01,0.99,0.13,49.55
30,-0.01,0.99,0.12,44.68
30,-0.07,0.99,0.12,43.13
30,-0.09,1.01,0.12,43.13
30,-0.12,1.01,0.10,43.94
30,-0.06,1.01,0.06,52.90
30,0.00,1.01,0.13,52.90
30,0.00,0.99,0.13,41.57
30,0.00,0.99,0.13,42.54
30,-0.05,0.99,0.13,42.54
30,-0.10,1.00,0.12,44.11
30,-0.10,0.94,0.12,41.08
30,-0.05,1.00,0.12,40.67
30,-0.01,1.01,0.11,41.46
30,-0.01,1.01,0.13,41.52
30,0.01,1.01,0.13,46.36
30,-0.04,0.99,0.13,46.36
30,-0.03,0.99,0.13,45.09
30,-0.09,0.99,0.11,46.60
30,-0.07,1.00,0.11,46.60
30,-0.02,1.01,0.12,41.84
30,-0.02,1.00,0.13,45.20
30,0.01,1.00,0.13,45.03
30,-0.03,1.00,0.14,41.89
30,-0.03,1.00,0.13,49.10
30,-0.08,1.00,0.13,50.13
30,-0.08,1.00,0.11,50.13
30,-0.10,1.01,0.11,48.58
30,-0.03,1.01,0.06,41.66
30,-0.00,1.00,0.13,41.66
30,-0.01,0.99,0.13,42.07
30,-0.01,0.99,0.13,48.24
30,-0.08,0.99,0.13,48.24
30,-0.08,0.99,0.11,44.19
30,-0.08,0.95,0.11,44.42
30,-0.05,1.02,0.11,45.33
30,-0.01,1.01,0.12,45.33
30,-0.01,1.00,0.13,40.19
30,-0.01,1.00,0.15,45.91
30,-0.05,1.00,0.15,45.91
30,-0.02,0.99,0.12,39.89
30,-0.09,0.99,0.12,44.42
30,-0.06,1.00,0.12,44.42
30,-0.01,1.01,0.12,46.80
30,-0.01,1.06,0.14,41.86
30,0.00,1.00,0.14,41.53
31,-0.03,1.00,0.13,42.20
31,-0.08,1.00,0.13,46.72
31,-0.08,1.00,0.11,46.72
31,-0.10,1.00,0.12,46.76
31,-0.03,1.00,0.07,43.24
31,0.00,1.00,0.13,43.24
31,-0.02,1.00,0.14,43.03
31,-0.02,1.00,0.12,50.30
31,-0.07,1.00,0.12,50.30
31,-0.09,1.00,0.11,43.00
31,-0.09,0.94,0.12,47.81
31,-0.04,1.00,0.12,47.98
31,-0.00,1.01,0.13,44.06
31,-0.00,1.00,0.14,44.43
31,-0.01,1.00,0.14,49.02
31,-0.06,1.00,0.12,49.02
31,-0.09,1.00,0.11,46.61
31,-0.09,1.00,0.11,47.56
31,-0.05,1.01,0.11,47.56
31,-0.00,1.01,0.13,45.84
31,-0.00,1.06,0.14,40.59
31,-0.00,0.99,0.14,40.00
31,-0.04,0.99,0.14,49.40
31,-0.04,1.00,0.13,51.65
31,-0.09,1.00,0.13,47.03
31,-0.07,0.99,0.12,47.03
31,-0.08,1.00,0.12,43.53
31,-0.02,1.00,0.07,42.72
31,0.00,1.00,0.14,42.72
31,-0.04,0.99,0.13,49.01
31,-0.04,0.99,0.12,46.96
31,-0.08,0.99,0.12,46.96
31,-0.08,1.00,0.11,42.60
31,-0.08,1.01,0.12,47.35
31,-0.03,1.01,0.12,47.20
31,0.00,1.00,0.13,47.98
31,0.00,1.00,0.14,48.79
31,-0.03,1.00,0.13,43.30
31,-0.07,1.00,0.13,43.30
31,-0.08,1.00,0.11,43.41
31,-0.08,1.00,0.11,48.27
31,-0.04,1.00,0.11,48.27
31,-0.00,1.00,0.12,43.72
31,-0.00,1.00,0.14,47.22
31,-0.01,1.00,0.14,47.46
31,-0.06,1.00,0.13,41.19
31,-0.06,1.00,0.12,44.04
31,-0.09,1.00,0.12,43.50
31,-0.06,1.00,0.11,43.50
31,-0.06,1.00,0.12,46.44
31,0.00,1.00,0.09,44.63
31,-0.00,1.00,0.15,44.63
31,-0.06,1.00,0.13,50.64
31,-0.06,1.00,0.12,40.45
31,-0.09,1.00,0.12,40.45
31,-0.07,1.01,0.11,47.22
31,-0.07,1.01,0.12,41.88
31,-0.02,1.01,0.12,47.80
31,0.00,1.00,0.13,47.80
31,0.00,1.00,0.13,45.63
31,-0.04,1.00,0.18,47.27
31,-0.08,1.00,0.12,47.27
31,-0.07,1.00,0.12,44.75
31,-0.07,1.00,0.12,46.69
31,-0.03,1.00,0.12,46.69
31,0.00,1.00,0.12,44.25
31,0.00,1.05,0.14,49.18
31,-0.02,0.99,0.14,48.75
31,-0.07,1.01,0.12,48.75
31,-0.07,0.99,0.11,50.35
31,-0.09,0.99,0.11,44.83
31,-0.04,1.00,0.12,44.83
31,-0.00,1.00,0.13,44.75
31,-0.00,1.00,0.13,40.03
31,-0.02,1.00,0.13,40.03
31,-0.07,1.00,0.14,42.55
31,-0.07,1.00,0.11,46.05
31,-0.08,1.00,0.11,45.65
31,-0.05,1.01,0.12,41.74
31,-0.05,1.01,0.11,46.59
31,0.00,1.01,0.11,45.03
31,-0.00,0.99,0.14,45.03
31,-0.00,0.99,0.14,47.11
31,-0.06,0.99,0.18,48.69
31,-0.09,1.00,0.12,48.69
31,-0.07,1.00,0.12,41.55
31,-0.07,1.00,0.12,40.85
31,-0.01,1.00,0.12,40.85
31,0.00,1.01,0.13,47.92
31,0.00,1.06,0.14,44.89
31,-0.04,1.00,0.14,45.18
31,-0.09,0.99,0.13,50.66
31,-0.09,0.99,0.12,47.83
31,-0.07,0.99,0.12,40.00
31,-0.03,1.01,0.12,40.00
31,-0.06,1.00,0.14,40.54
31,0.01,1.00,0.13,47.29
31,-0.03,1.01,0.13,47.29
31,-0.08,0.99,0.12,44.31
31,-0.08,0.99,0.11,42.90
31,-0.08,0.99,0.11,42.61
31,-0.03,1.01,0.12,44.18
31,-0.03,1.00,0.13,46.83
31,-0.00,1.00,0.13,40.05
31,-0.01,0.99,0.13,40.05
31,-0.01,0.99,0.12,44.53
31,-0.06,0.99,0.12,49.72
31,-0.09,1.00,0.12,49.72
31,-0.10,1.00,0.12,44.33
31,-0.04,1.00,0.12,42.97
31,-0.01,1.01,0.12,42.97
31,-0.01,0.99,0.13,42.82
31,-0.01,0.99,0.13,44.71
31,-0.05,0.99,0.13,45.17
31,-0.09,1.00,0.12,49.87
31,-0.09,1.01,0.11,45.73
31,-0.07,1.01,0.11,44.44
31,-0.01,1.00,0.12,44.44
31,-0.06,1.01,0.13,46.24
31,0.00,1.01,0.13,45.67
31,-0.05,1.00,0.13,45.67
31,-0.08,1.00,0.13,42.40
31,-0.08,1.00,0.11,43.51
31,-0.07,1.01,0.11,43.38
31,-0.03,1.00,0.13,48.86
31,-0.03,1.00,0.14,40.22
31,-0.01,1.00,0.14,46.94
31,-0.03,1.00,0.14,46.94
31,-0.02,0.99,0.13,51.48
31,-0.08,0.99,0.17,46.97
31,-0.09,1.00,0.11,46.97
31,-0.03,1.00,0.12,42.90
31,-0.03,1.00,0.13,44.95
31,0.00,1.01,0.13,44.95
31,-0.02,0.99,0.14,46.59
31,-0.02,0.99,0.13,47.85
31,-0.07,0.99,0.13,47.99
31,-0.07,1.00,0.11,48.78
31,-0.07,1.00,0.12,43.49
31,-0.05,1.00,0.12,44.06
31,-0.01,1.00,0.12,44.06
31,-0.01,1.00,0.14,45.64
31,-0.01,1.00,0.13,45.75
31,-0.05,0.99,0.13,45.75
31,-0.09,1.00,0.11,40.56
31,-0.09,1.00,0.10,48.38
31,-0.05,1.01,0.10,47.86
31,-0.02,1.01,0.14,43.16
31,-0.02,1.06,0.13,43.91
31,0.00,0.99,0.13,50.45
31,-0.04,0.99,0.13,50.45
31,-0.03,1.00,0.12,43.91
31,-0.09,1.00,0.12,44.43
31,-0.07,1.00,0.12,44.43
31,-0.01,1.01,0.12,43.21
31,-0.01,1.01,0.14,42.35
31,0.00,1.01,0.14,42.35
31,-0.04,1.00,0.13,46.27
31,-0.04,1.00,0.12,43.62
31,-0.08,1.00,0.12,43.40
31,-0.07,0.99,0.10,45.75
31,-0.07,1.01,0.12,43.74
31,-0.03,1.01,0.12,45.21
31,-0.01,1.00,0.15,45.21
31,-0.03,1.00,0.14,46.94
31,-0.03,1.00,0.13,44.49
31,-0.08,0.99,0.13,44.49
31,-0.08,1.00,0.11,39.70
31,-0.08,0.94,0.11,43.30
31,-0.05,1.00,0.11,43.55
31,0.00,1.00,0.13,42.76
31,0.00,1.00,0.14,44.01
31,-0.01,1.00,0.14,41.94
31,-0.06,0.99,0.13,41.94
31,-0.01,1.00,0.11,48.05
31,-0.08,1.00,0.11,43.22
31,-0.06,1.00,0.11,43.22
31,-0.00,1.01,0.13,47.44
31,-0.00,1.01,0.14,43.54
31,-0.01,1.00,0.14,43.54
31,-0.05,1.00,0.14,44.60
31,-0.05,1.00,0.12,44.52
31,-0.09,1.00,0.12,45.19
31,-0.06,1.00,0.11,45.19
31,-0.06,1.01,0.12,40.54
31,-0.01,1.01,0.08,41.19
31,-0.00,1.00,0.14,41.19
31,-0.04,1.00,0.14,48.17
31,-0.04,1.00,0.12,40.66
31,-0.08,0.99,0.12,40.66
31,-0.07,1.00,0.11,42.70
31,-0.07,0.94,0.12,54.36
31,-0.03,1.00,0.12,54.53
31,-0.00,0.99,0.14,47.48
31,-0.00,0.99,0.13,43.05
31,-0.03,0.99,0.13,46.23
31,-0.08,0.99,0.14,46.23
31,-0.08,1.00,0.11,43.72
31,-0.08,1.00,0.07,46.91
31,-0.04,1.00,0.13,46.91
31,0.00,1.00,0.14,42.20
31,0.00,1.00,0.13,45.23
31,-0.02,0.99,0.13,45.15
31,-0.07,0.99,0.12,45.15
31,-0.07,1.00,0.11,41.87
31,-0.10,1.00,0.11,47.06
31,-0.04,1.01,0.12,47.06
31,-0.04,1.00,0.12,46.79
31,-0.00,1.00,0.08,45.29
31,-0.02,1.00,0.14,45.29
31,-0.05,0.99,0.12,49.03
31,-0.05,0.99,0.11,46.82
31,-0.09,0.99,0.11,46.82
31,-0.06,1.00,0.12,43.03
31,-0.06,0.94,0.12,44.14
31,-0.02,1.00,0.12,44.06
31,-0.00,1.01,0.14,38.58
31,-0.00,0.99,0.14,50.55
31,-0.05,0.99,0.14,44.68
31,-0.09,1.00,0.12,44.68
31,-0.07,1.00,0.12,47.22
31,-0.07,1.00,0.11,48.68
31,-0.03,1.00,0.11,48.68
31,-0.00,1.01,0.13,45.55
31,-0.00,1.01,0.14,47.57
31,-0.03,1.00,0.14,47.67
31,-0.08,1.00,0.12,46.11
31,-0.08,1.00,0.12,41.68
31,-0.08,1.00,0.12,42.66
31,-0.03,1.00,0.11,42.66
31,-0.03,1.00,0.13,50.82
31,0.00,1.00,0.13,42.65
31,-0.02,1.00,0.13,42.65
32,-0.06,0.99,0.17,43.78
32,-0.07,1.00,0.11,43.78
32,-0.06,1.00,0.12,45.61
32,-0.06,1.00,0.12,46.83
32,-0.00,1.00,0.12,46.83
32,-0.01,1.00,0.14,43.40
32,-0.01,1.05,0.13,49.79
32,-0.05,0.99,0.13,49.55
32,-0.09,1.00,0.13,40.93
32,-0.09,1.00,0.12,42.63
32,-0.07,1.00,0.12,43.11
32,-0.02,1.02,0.12,43.11
32,-0.01,1.00,0.13,40.78
32,-0.01,1.00,0.14,42.49
32,-0.03,0.98,0.14,42.49
32,-0.08,1.00,0.13,44.67
32,-0.08,1.00,0.12,46.75
32,-0.07,1.00,0.12,46.69
32,-0.04,1.00,0.12,45.12
32,-0.04,0.94,0.14,46.03
32,0.01,1.01,0.14,41.49
32,-0.03,1.00,0.14,41.49
32,-0.03,0.99,0.14,46.97
32,-0.06,0.99,0.18,47.34
32,-0.07,0.99,0.12,47.34
32,-0.05,0.99,0.13,46.05
32,-0.05,0.99,0.12,48.81
32,-0.01,1.01,0.12,48.81
32,-0.02,1.00,0.15,45.97
32,-0.02,0.99,0.13,43.89
32,-0.06,0.99,0.13,43.84
32,-0.09,1.00,0.11,47.76
32,-0.09,1.00,0.12,44.54
32,-0.06,1.00,0.12,47.60
32,-0.01,1.01,0.12,47.60
32,-0.01,1.00,0.14,42.74
32,-0.01,1.00,0.13,45.74
32,-0.05,1.00,0.13,45.74
32,-0.09,0.99,0.11,41.74
32,-0.09,0.99,0.11,46.91
32,-0.07,1.00,0.11,46.77
32,-0.02,1.00,0.12,42.07
32,-0.02,1.06,0.13,43.99
32,0.00,1.00,0.13,45.65
32,-0.03,1.00,0.13,45.65
32,-0.01,1.00,0.13,42.40
32,-0.08,1.00,0.18,47.90
32,-0.08,1.01,0.11,47.90
32,-0.03,0.99,0.12,42.57
32,-0.03,0.99,0.13,48.30
32,0.00,1.00,0.13,48.30
32,-0.03,0.99,0.13,49.34
32,-0.03,0.99,0.12,44.89
32,-0.07,0.99,0.12,45.09
32,-0.07,1.00,0.12,42.74
32,-0.07,1.00,0.11,42.68
32,-0.04,1.00,0.11,44.22
32,-0.01,1.01,0.13,44.22
32,-0.01,1.00,0.13,42.18
32,-0.01,1.00,0.18,45.38
32,-0.06,1.00,0.12,45.38
32,-0.08,1.00,0.12,45.02
32,-0.08,0.94,0.11,42.78
32,-0.05,1.00,0.11,42.30
32,-0.01,1.01,0.12,43.86
32,-0.01,1.00,0.14,44.65
32,-0.01,1.00,0.14,40.02
32,-0.05,1.00,0.13,40.02
32,-0.01,0.99,0.12,41.55
32,-0.07,0.99,0.11,43.91
32,-0.06,1.00,0.11,43.91
32,-0.02,1.00,0.12,42.74
32,-0.02,1.00,0.13,41.41
32,0.00,0.99,0.13,41.41
32,-0.05,1.00,0.13,39.62
32,-0.05,0.94,0.13,44.70
32,-0.08,1.00,0.13,45.02
32,-0.07,1.00,0.11,47.37
32,-0.07,1.01,0.12,49.23
32,-0.02,1.01,0.12,45.70
32,-0.00,1.00,0.12,45.70
32,-0.03,0.99,0.15,42.72
32,-0.03,0.99,0.14,41.04
32,-0.08,0.99,0.14,41.04
32,-0.07,1.00,0.12,40.35
32,-0.07,1.06,0.12,40.13
32,-0.03,1.00,0.12,40.23
32,0.00,1.00,0.13,43.37
32,0.00,1.00,0.14,46.62
32,-0.02,1.00,0.14,43.34
32,-0.06,1.00,0.13,43.34
32,-0.01,0.99,0.13,48.15
32,-0.08,0.99,0.18,48.19
32,-0.05,1.00,0.12,48.19
32,0.00,1.01,0.13,45.37
32,0.00,1.01,0.13,49.06
32,-0.01,0.99,0.13,48.74
32,-0.05,1.00,0.12,43.25
32,-0.05,0.99,0.12,42.42
32,-0.08,0.99,0.12,45.16
32,-0.07,1.01,0.12,45.16
32,-0.07,1.01,0.12,47.42
32,-0.02,1.01,0.07,44.13
32,-0.00,1.00,0.13,44.13
32,-0.04,1.00,0.13,42.99
32,-0.04,1.00,0.11,41.30
32,-0.09,1.00,0.11,41.30
32,-0.06,1.00,0.11,47.92
32,-0.06,0.94,0.12,49.50
32,-0.02,1.00,0.12,49.99
32,-0.00,1.00,0.12,46.08
32,-0.00,0.99,0.13,50.48
32,-0.03,0.99,0.13,40.98
32,-0.07,0.99,0.12,40.98
32,-0.08,1.00,0.11,46.41
32,-0.08,1.00,0.11,40.86
32,-0.03,1.00,0.11,40.86
32,-0.01,1.00,0.12,45.05
32,-0.01,1.00,0.14,42.72
32,-0.02,0.99,0.14,42.51
32,-0.07,1.00,0.14,46.43
32,-0.07,0.99,0.11,45.14
32,-0.08,0.99,0.11,43.92
32,-0.04,1.00,0.12,43.92
32,-0.04,1.01,0.12,41.66
32,-0.00,1.01,0.07,47.39
32,-0.00,1.00,0.13,47.39
32,-0.05,1.00,0.14,44.21
32,-0.05,1.00,0.11,43.19
32,-0.09,1.00,0.11,43.19
32,-0.06,1.00,0.12,45.14
32,-0.06,1.00,0.12,42.75
32,-0.01,1.00,0.12,42.51
32,-0.01,1.00,0.14,44.86
32,-0.01,0.99,0.14,46.94
32,-0.05,0.99,0.14,46.72
32,-0.08,0.99,0.13,46.72
32,-0.07,1.00,0.11,41.61
32,-0.07,1.00,0.12,46.96
32,-0.02,1.00,0.12,46.96
32,-0.00,1.00,0.13,42.30
32,-0.00,1.00,0.14,45.32
32,-0.04,1.01,0.14,44.76
32,-0.08,0.99,0.11,47.89
32,-0.08,0.94,0.12,46.32
32,-0.07,1.00,0.12,43.68
32,-0.03,1.01,0.12,43.68
32,-0.03,1.00,0.13,52.61
32,-0.01,1.00,0.18,45.59
32,-0.03,0.99,0.12,45.59
32,-0.01,1.00,0.12,41.41
32,-0.07,1.00,0.11,46.01
32,-0.08,1.00,0.11,46.01
32,-0.05,1.01,0.12,43.63
32,-0.05,1.00,0.13,48.55
32,-0.00,1.00,0.13,49.24
32,-0.02,0.99,0.14,45.32
32,-0.02,1.00,0.13,45.39
32,-0.05,1.00,0.13,41.88
32,-0.08,1.00,0.12,41.88
32,-0.12,1.01,0.12,44.00
32,-0.06,1.01,0.06,43.85
32,-0.01,1.01,0.13,43.85
32,-0.01,1.00,0.13,46.20
32,-0.01,1.00,0.12,48.20
32,-0.05,0.99,0.12,47.87
32,-0.09,0.99,0.12,43.17
32,-0.09,0.94,0.10,46.07
32,-0.06,1.00,0.10,45.04
32,-0.01,1.01,0.13,45.04
32,-0.01,1.00,0.13,43.12
32,-0.00,1.00,0.13,44.62
32,-0.04,1.00,0.13,44.62
32,-0.02,0.99,0.12,45.14
32,-0.08,0.99,0.11,43.96
32,-0.07,0.99,0.11,43.96
32,-0.03,1.01,0.13,46.12
32,-0.03,1.00,0.13,41.81
32,0.00,1.00,0.13,41.51
32,-0.02,1.00,0.14,43.08
32,-0.02,1.00,0.13,40.33
32,-0.08,1.00,0.13,43.32
32,-0.08,1.00,0.11,43.32
32,-0.10,1.00,0.12,44.11
32,-0.04,1.00,0.06,41.85
32,-0.01,1.00,0.13,41.85
32,-0.02,1.00,0.14,41.64
32,-0.02,1.00,0.13,48.56
32,-0.07,0.99,0.13,49.16
32,-0.08,1.00,0.12,40.55
32,-0.08,0.94,0.11,42.18
32,-0.05,1.00,0.11,41.05
32,-0.01,1.00,0.13,41.05
32,-0.01,1.00,0.14,41.22
32,-0.01,1.00,0.14,44.80
32,-0.05,0.99,0.14,44.80
32,-0.07,1.00,0.12,43.84
32,-0.07,1.00,0.11,48.18
32,-0.06,1.00,0.11,48.18
32,-0.01,1.00,0.13,43.24
32,-0.01,1.00,0.14,40.43
32,-0.01,1.00,0.14,39.91
32,-0.04,1.00,0.13,41.48
32,-0.04,1.00,0.12,47.07
32,-0.08,1.00,0.12,46.80
32,-0.07,1.00,0.10,46.80
32,-0.09,1.01,0.12,47.25
32,-0.02,1.01,0.06,43.39
32,-0.00,1.00,0.13,43.39
32,-0.03,0.99,0.13,44.43
32,-0.03,0.99,0.12,43.78
32,-0.07,0.99,0.12,43.55
32,-0.07,1.00,0.11,46.68
32,-0.07,0.94,0.11,47.35
32,-0.04,1.00,0.11,46.41
32,-0.01,1.00,0.13,46.41
32,-0.01,1.00,0.14,49.48
32,-0.02,1.00,0.14,41.97
32,-0.07,1.00,0.14,41.97
32,-0.09,1.00,0.12,47.68
32,-0.09,1.00,0.12,46.48
32,-0.04,1.01,0.12,46.48
32,-0.01,1.01,0.13,45.23
32,-0.01,1.06,0.14,44.63
32,-0.01,1.00,0.14,45.15
32,-0.06,0.99,0.13,45.93
32,-0.06,1.00,0.11,42.25
32,-0.08,1.00,0.11,47.33
32,-0.06,1.01,0.11,47.33
32,-0.01,1.00,0.13,43.80
32,-0.01,1.00,0.14,44.94
32,-0.00,1.00,0.14,44.94
32,-0.05,0.99,0.14,40.60
33,-0.08,0.99,0.12,41.76
33,-0.08,1.00,0.12,47.77
33,-0.08,1.00,0.11,40.12
33,-0.04,1.00,0.11,39.93
33,-0.00,1.00,0.13,49.33
33,-0.00,1.00,0.13,44.69
33,-0.02,1.00,0.13,40.87
33,-0.07,1.00,0.13,40.87
33,-0.08,1.00,0.12,46.33
33,-0.08,1.00,0.11,46.53
33,-0.05,1.01,0.11,46.53
33,-0.01,1.01,0.13,44.20
33,-0.01,1.01,0.13,45.19
33,-0.01,1.00,0.13,45.19
33,-0.06,1.00,0.12,41.89
33,-0.06,0.94,0.11,51.74
33,-0.09,1.01,0.11,51.98
33,-0.05,1.00,0.12,40.23
33,-0.05,1.01,0.13,45.60
33,-0.01,1.01,0.13,44.33
33,-0.01,1.00,0.13,44.33
33,-0.05,0.99,0.14,47.43
33,-0.05,0.99,0.12,47.77
33,-0.07,0.99,0.12,47.77
33,-0.07,1.01,0.11,49.83
33,-0.07,1.06,0.12,43.90
33,-0.03,1.00,0.12,44.45
33,-0.01,1.00,0.12,41.32
33,-0.01,1.00,0.12,41.46
33,-0.04,1.00,0.12,45.57
33,-0.08,0.99,0.12,45.57
33,-0.08,1.00,0.12,43.93
33,-0.08,1.00,0.11,46.40
33,-0.03,1.01,0.11,46.40
33,0.00,1.00,0.13,49.85
33,0.00,1.00,0.13,49.82
33,-0.03,0.99,0.13,49.65
33,-0.08,1.00,0.13,48.08
33,-0.08,1.06,0.12,40.93
33,-0.07,1.00,0.12,41.03
33,-0.04,1.00,0.12,41.03
33,-0.04,1.00,0.12,42.99
33,-0.01,1.00,0.07,47.17
33,-0.02,1.00,0.13,47.17
33,-0.00,1.00,0.13,43.11
33,-0.06,1.00,0.12,42.79
33,-0.08,1.01,0.12,42.79
33,-0.05,1.00,0.12,43.91
33,-0.05,1.06,0.11,48.11
33,-0.01,1.00,0.11,47.88
33,-0.01,0.99,0.13,42.40
33,-0.01,0.99,0.13,43.76
33,-0.05,0.99,0.13,46.21
33,-0.07,1.00,0.12,46.21
33,-0.12,1.00,0.11,41.95
33,-0.06,1.00,0.06,47.80
33,-0.02,1.01,0.13,47.80
33,-0.01,0.99,0.14,38.57
33,-0.01,0.99,0.13,42.74
33,-0.04,1.00,0.13,42.96
33,-0.07,0.99,0.12,42.18
33,-0.07,0.94,0.12,42.48
33,-0.07,1.00,0.12,40.94
33,-0.03,1.01,0.12,40.94
33,-0.03,1.01,0.13,40.37
33,-0.00,1.01,0.13,45.27
33,-0.03,1.00,0.13,45.27
33,-0.01,1.00,0.13,42.18
33,-0.07,1.00,0.12,45.30
33,-0.07,1.00,0.12,45.30
33,-0.03,1.00,0.13,46.85
33,-0.03,1.01,0.12,41.86
33,0.00,1.01,0.12,41.72
33,-0.02,1.00,0.14,44.85
33,-0.02,1.00,0.13,45.86
33,-0.07,1.00,0.13,48.86
33,-0.08,1.00,0.10,48.86
33,-0.11,1.01,0.12,49.71
33,-0.05,1.01,0.12,40.31
33,-0.01,1.00,0.12,40.31
33,-0.01,0.99,0.14,43.15
33,-0.01,0.99,0.13,45.09
33,-0.06,1.00,0.13,44.92
33,-0.07,1.00,0.12,44.92
33,-0.07,1.01,0.11,39.75
33,-0.06,1.01,0.11,43.06
33,-0.01,1.02,0.12,43.06
33,-0.01,1.01,0.14,44.75
33,-0.01,1.01,0.14,48.50
33,-0.04,1.00,0.14,48.50
33,-0.02,1.00,0.13,50.65
33,-0.09,1.00,0.11,47.23
33,-0.07,1.00,0.11,47.23
33,-0.02,1.00,0.12,41.75
33,-0.02,1.00,0.13,44.63
33,-0.00,1.00,0.13,44.73
33,-0.03,1.00,0.13,47.08
33,-0.03,1.00,0.13,42.73
33,-0.07,1.00,0.13,44.53
33,-0.07,1.00,0.12,44.53
33,-0.09,1.00,0.12,40.74
33,-0.03,1.00,0.07,43.98
33,-0.00,1.00,0.13,43.98
33,-0.03,0.99,0.14,45.83
33,-0.03,0.99,0.13,47.43
33,-0.07,1.01,0.13,47.58
33,-0.07,1.00,0.11,41.32
33,-0.07,1.00,0.11,42.24
33,-0.04,1.00,0.11,46.96
33,-0.01,1.00,0.12,46.96
33,-0.02,1.00,0.14,43.30
33,-0.02,1.00,0.13,42.48
33,-0.05,1.00,0.13,42.48
33,-0.09,1.01,0.14,45.65
33,-0.09,1.01,0.16,43.54
33,-0.05,1.00,0.16,43.54
33,-0.02,0.99,0.11,45.11
33,-0.02,0.95,0.10,47.47
33,0.03,1.02,0.10,47.58
33,-0.10,0.99,0.16,46.02
33,-0.10,0.97,0.15,44.20
33,-0.07,0.97,0.15,51.62
33,-0.03,1.03,0.08,51.62
33,-0.03,1.00,0.12,45.47
33,-0.03,1.00,0.08,48.07
33,-0.04,1.00,0.14,48.07
33,-0.00,0.99,0.13,40.59
33,-0.00,0.99,0.11,44.66
33,-0.07,1.01,0.11,44.82
33,-0.09,1.00,0.12,47.95
33,-0.09,1.00,0.13,45.89
33,-0.02,1.00,0.13,42.59
33,-0.01,1.01,0.12,42.59
33,-0.03,1.00,0.12,40.18
33,-0.03,1.00,0.08,42.53
33,-0.07,0.99,0.14,42.53
33,-0.07,1.00,0.14,39.55
33,-0.07,1.00,0.10,43.05
33,-0.05,1.01,0.10,43.05
1,-0.04,0.98,0.17,37.56
1,-0.01,1.10,0.11,37.56
1,0.02,0.89,0.15,37.66
1,0.02,0.89,0.17,38.83
1,-0.11,1.05,0.17,38.47
1,-0.05,0.98,0.11,38.47
1,-0.05,0.97,0.13,37.51
1,0.00,0.97,0.13,39.67
1,-0.05,1.10,0.14,39.67
1,-0.05,0.90,0.14,37.25
1,-0.05,0.90,0.13,41.02
1,-0.09,0.99,0.13,41.02
1,-0.08,1.08,0.06,40.28
1,-0.02,1.08,0.13,40.54
1,0.03,0.93,0.13,40.54
1,-0.07,1.08,0.15,37.84
1,-0.07,1.12,0.12,38.65
1,-0.04,0.93,0.12,38.46
1,-0.02,0.99,0.11,42.38
1,-0.02,1.12,0.10,41.60
1,-0.02,1.12,0.10,35.35
1,0.00,0.89,0.15,35.35
1,0.01,1.03,0.16,43.41
1,-0.12,1.03,0.16,39.31
1,-0.04,1.01,0.10,39.31
1,0.01,0.95,0.12,41.45
1,0.01,0.95,0.15,40.33
1,-0.06,1.09,0.15,39.92
1,-0.03,0.89,0.14,46.18
1,-0.03,0.93,0.14,40.44
1,-0.07,0.99,0.14,36.55
1,-0.01,1.08,0.09,36.55
1,-0.01,0.92,0.14,40.77
1,0.04,0.92,0.16,41.81
1,-0.10,1.07,0.16,41.81
1,-0.10,0.96,0.10,43.97
1,-0.04,0.96,0.12,42.78
1,-0.02,0.98,0.12,42.78
1,-0.03,1.11,0.11,38.07
1,-0.03,1.09,0.15,37.91
1,-0.02,0.90,0.15,38.13
1,-0.10,1.01,0.14,42.05
1,-0.10,1.04,0.08,38.83
1,-0.03,1.04,0.08,41.64
1,0.05,0.94,0.13,41.64
1,0.06,1.09,0.15,40.35
1,-0.06,1.09,0.14,34.76
1,-0.04,0.91,0.14,34.76
1,-0.06,0.99,0.13,40.42
1,-0.06,0.99,0.11,41.03
1,-0.02,1.09,0.11,41.35
1,0.01,0.91,0.15,40.57
1,0.01,0.92,0.15,38.61
1,-0.11,1.05,0.15,38.33
1,-0.05,0.98,0.09,38.33
1,-0.05,0.96,0.12,41.77
1,-0.00,0.96,0.06,39.42
1,-0.05,1.13,0.13,39.42
1,-0.02,0.90,0.15,36.02
1,-0.02,0.90,0.13,41.18
1,-0.08,1.01,0.13,41.18
1,-0.02,1.06,0.08,42.67
1,-0.02,1.00,0.13,40.18
1,0.03,0.94,0.13,39.90
1,-0.09,1.08,0.15,38.33
1,-0.09,0.93,0.12,37.28
1,-0.05,0.93,0.12,41.70
1,-0.04,0.99,0.13,41.70
1,-0.03,1.10,0.10,37.22
1,-0.03,1.10,0.09,43.25
1,0.00,0.90,0.15,43.25
1,-0.11,1.03,0.15,38.83
1,-0.11,1.03,0.10,37.02
1,-0.04,1.00,0.10,37.32
1,0.02,0.95,0.12,40.46
1,0.02,0.98,0.13,37.39
1,-0.05,1.11,0.13,38.38
1,-0.02,0.90,0.14,38.38
1,-0.02,1.00,0.13,41.02
1,-0.08,1.00,0.15,44.39
1,-0.01,1.07,0.08,44.39
1,0.02,0.93,0.13,43.91
1,0.02,0.93,0.15,40.70
1,-0.09,1.06,0.15,40.70
1,-0.05,0.95,0.11,39.58
1,-0.05,0.97,0.12,39.68
1,-0.02,0.97,0.12,39.22
1,-0.03,1.12,0.11,40.01
1,-0.03,0.89,0.15,43.42
1,-0.00,0.89,0.15,42.94
1,-0.10,1.02,0.14,42.94
1,-0.08,1.02,0.09,40.51
1,-0.02,1.02,0.07,39.05
1,0.02,0.95,0.13,39.05
1,-0.06,1.10,0.15,41.27
1,-0.06,1.10,0.13,38.04
1,-0.04,0.91,0.13,37.77
1,-0.06,0.99,0.13,41.68
1,-0.06,1.09,0.10,40.28
1,-0.02,1.09,0.10,40.06
1,0.01,0.92,0.14,40.06
1,0.02,1.05,0.16,40.84
1,-0.10,1.05,0.17,43.60
1,-0.05,0.96,0.10,43.60
1,-0.00,0.97,0.12,43.47
1,-0.00,0.97,0.12,39.20
1,-0.03,1.11,0.12,39.20
1,-0.01,0.89,0.14,36.92
1,-0.01,0.90,0.13,41.83
1,-0.10,1.02,0.13,41.70
1,-0.02,1.04,0.09,43.26
1,-0.02,0.94,0.14,38.36
1,0.03,0.94,0.15,35.93
1,-0.07,1.08,0.15,35.93
1,-0.11,0.93,0.12,38.49
1,-0.05,0.93,0.14,39.10
1,-0.05,0.98,0.14,39.10
1,-0.01,1.10,0.10,43.47
1,-0.01,1.09,0.14,41.49
1,0.02,0.91,0.14,41.64
1,-0.10,1.04,0.15,45.55
1,-0.10,0.99,0.10,43.27
1,-0.03,0.99,0.10,39.21
1,0.01,0.96,0.12,39.21
1,0.02,1.10,0.13,46.25
1,-0.04,1.10,0.15,41.57
1,-0.03,0.91,0.15,41.57
1,-0.08,1.00,0.14,44.54
1,-0.08,1.00,0.10,40.60
1,-0.03,1.06,0.10,40.36
1,0.03,0.92,0.14,38.79
1,0.03,0.89,0.15,38.71
1,-0.09,1.07,0.15,34.90
1,-0.05,0.94,0.11,34.90
1,-0.05,0.99,0.12,44.19
1,-0.03,0.99,0.11,39.97
1,-0.03,1.10,0.11,39.97
1,-0.06,0.90,0.16,40.74
1,0.00,0.90,0.15,38.07
1,-0.10,1.03,0.15,38.07
1,-0.04,1.00,0.10,43.35
1,-0.04,1.02,0.13,38.89
1,0.02,0.96,0.13,38.65
1,-0.06,1.09,0.14,41.79
1,-0.06,0.91,0.13,39.24
1,-0.03,0.91,0.13,43.22
1,-0.08,1.00,0.13,43.22
1,-0.10,1.08,0.10,39.96
1,-0.03,1.08,0.08,38.94
1,0.02,0.92,0.14,38.94
1,-0.10,1.07,0.15,41.36
1,-0.10,1.07,0.11,38.49
1,-0.04,0.96,0.11,39.09
1,-0.01,0.98,0.13,38.31
1,-0.01,0.97,0.12,39.84
1,-0.04,1.10,0.12,38.45
1,-0.02,0.91,0.15,38.45
1,-0.02,1.01,0.14,43.50
1,-0.09,1.01,0.16,38.79
1,-0.03,1.03,0.09,38.79
1,-0.04,0.94,0.13,38.49
1,0.03,0.94,0.14,39.71
1,-0.08,1.09,0.14,39.71
1,-0.04,0.92,0.14,40.60
1,-0.04,0.93,0.13,41.35
1,-0.06,0.99,0.13,40.91
1,-0.02,1.09,0.09,44.04
1,-0.02,0.91,0.15,37.92
1,0.02,0.91,0.15,39.63
1,-0.10,1.04,0.15,39.63
1,-0.10,0.98,0.10,38.10
1,-0.04,0.98,0.12,39.12
1,0.00,0.97,0.12,39.12
1,-0.05,1.10,0.12,38.00
1,-0.05,1.10,0.14,38.00
1,-0.02,0.91,0.14,37.54
1,-0.09,1.01,0.14,39.11
1,-0.09,1.05,0.09,39.60
1,-0.02,1.05,0.09,41.50
1,0.03,0.93,0.13,41.50
1,0.04,1.08,0.15,35.29
1,-0.08,1.08,0.13,40.06
1,-0.05,0.92,0.13,40.06
1,-0.04,0.99,0.12,36.10
1,-0.04,0.99,0.12,36.64
1,-0.03,1.09,0.12,36.64
1,0.01,0.91,0.15,38.35
1,0.01,0.91,0.15,39.65
1,-0.11,1.03,0.15,39.77
1,-0.04,1.00,0.10,38.20
1,-0.04,0.96,0.13,39.18
1,0.01,0.96,0.13,38.93
1,-0.06,1.10,0.13,38.93
1,-0.04,0.90,0.14,41.50
1,-0.04,0.90,0.13,41.44
1,-0.07,1.00,0.13,41.44
1,-0.02,1.07,0.09,39.58
1,-0.02,1.12,0.14,41.94
1,0.02,0.93,0.14,42.23
1,-0.09,1.06,0.15,38.31
1,-0.09,0.95,0.11,41.78
1,-0.04,0.95,0.11,38.70
1,-0.03,0.98,0.12,38.70
1,-0.04,1.10,0.11,38.42
1,-0.04,1.10,0.08,35.58
1,-0.01,0.90,0.14,35.58
1,-0.10,1.02,0.14,37.27
1,-0.10,1.02,0.09,37.80
1,-0.03,1.02,0.09,37.80
1,0.02,0.95,0.12,38.97
1,0.02,0.97,0.15,35.16
1,-0.07,1.09,0.15,38.80
1,-0.04,0.92,0.13,38.80
1,-0.04,1.00,0.13,41.13
1,-0.06,1.00,0.17,38.31
1,-0.02,1.08,0.10,38.31
1,-0.05,0.92,0.14,40.52
1,0.01,0.92,0.14,38.39
1,-0.10,1.05,0.14,38.39
1,-0.04,0.97,0.10,36.86
1,-0.04,0.97,0.12,39.49
1,-0.01,0.97,0.12,39.50
1,-0.04,1.11,0.13,35.59
1,-0.04,0.90,0.14,40.96
1,-0.02,0.90,0.14,39.43
2,-0.04,0.97,0.11,39.96
2,-0.03,1.10,0.11,39.95
2,0.01,0.91,0.15,39.95
2,0.01,1.03,0.15,41.37
2,-0.10,1.03,0.17,35.78
2,-0.04,0.99,0.10,35.78
2,-0.06,0.96,0.12,36.88
2,0.00,0.96,0.13,37.55
2,-0.05,1.10,0.13,37.55
2,-0.03,0.90,0.15,39.83
2,-0.03,0.88,0.14,36.69
2,-0.07,1.00,0.14,36.29
2,-0.02,1.06,0.09,40.21
2,-0.02,0.92,0.14,38.24
2,0.02,0.92,0.14,40.63
2,-0.08,1.07,0.15,40.63
2,-0.11,0.95,0.12,41.33
2,-0.05,0.95,0.06,41.90
2,-0.02,0.98,0.13,41.90
2,-0.03,1.10,0.11,43.03
2,-0.03,1.10,0.15,38.46
2,-0.00,0.90,0.15,38.79
2,-0.10,1.03,0.14,41.14
2,-0.10,1.01,0.10,41.25
2,-0.03,1.01,0.10,38.95
2,0.01,0.96,0.13,38.95
2,0.01,1.08,0.14,40.14
2,-0.06,1.08,0.13,40.62
2,-0.05,0.91,0.13,40.62
2,-0.06,1.00,0.14,40.20
2,-0.06,1.00,0.10,38.40
2,-0.03,1.08,0.10,38.40
2,0.01,0.91,0.14,41.82
2,0.01,0.94,0.15,44.47
2,-0.09,1.06,0.15,44.55
2,-0.04,0.96,0.12,39.07
2,-0.04,0.97,0.11,37.13
2,-0.01,0.97,0.11,38.19
2,-0.04,1.09,0.12,38.19
2,-0.02,0.91,0.14,40.93
2,-0.02,0.91,0.14,45.08
2,-0.09,1.01,0.14,45.08
2,-0.03,1.03,0.10,37.81
2,-0.03,1.03,0.13,40.65
2,0.02,0.94,0.13,40.19
2,-0.06,1.08,0.14,42.54
2,-0.06,1.12,0.13,40.24
2,-0.05,0.93,0.13,41.69
2,-0.06,0.99,0.13,41.69
2,-0.06,1.09,0.10,41.15
2,-0.03,1.09,0.07,41.58
2,0.02,0.92,0.13,41.58
2,0.04,1.04,0.15,40.65
2,-0.09,1.04,0.11,38.18
2,-0.05,0.98,0.11,38.18
2,0.01,0.97,0.12,39.94
2,0.01,0.96,0.13,48.03
2,-0.04,1.09,0.13,48.13
2,-0.02,0.90,0.13,41.08
2,-0.02,1.00,0.13,39.54
2,-0.08,1.00,0.13,40.26
2,-0.02,1.05,0.09,40.26
2,-0.03,0.93,0.13,43.16
2,0.03,0.93,0.15,41.44
2,-0.08,1.07,0.15,41.44
2,-0.03,0.93,0.12,41.23
2,-0.03,0.93,0.13,40.30
2,-0.04,0.99,0.13,40.59
2,-0.04,1.09,0.11,43.72
2,-0.04,1.10,0.14,45.59
2,-0.00,0.91,0.14,39.54
2,-0.10,1.02,0.15,39.54
2,-0.10,1.00,0.10,40.15
2,-0.04,1.00,0.12,40.39
2,0.01,0.96,0.12,40.39
2,0.01,1.09,0.14,40.46
2,-0.05,1.09,0.13,36.70
2,-0.04,0.91,0.13,36.70
2,-0.08,1.00,0.14,38.24
2,-0.08,1.01,0.10,37.31
2,-0.03,1.07,0.10,37.10
2,0.02,0.93,0.13,36.32
2,0.02,1.06,0.15,42.61
2,-0.09,1.06,0.15,38.30
2,-0.04,0.95,0.13,38.30
2,-0.01,0.98,0.12,42.53
2,-0.01,0.98,0.07,39.80
2,-0.03,1.09,0.14,39.80
2,-0.01,0.91,0.15,41.60
2,-0.01,0.91,0.14,43.08
2,-0.09,1.02,0.14,43.14
2,-0.03,1.02,0.10,36.09
2,-0.03,1.01,0.13,43.94
2,0.01,0.95,0.13,46.48
2,-0.07,1.08,0.14,46.48
2,-0.07,0.92,0.13,41.62
2,-0.04,0.92,0.13,39.83
2,-0.06,1.00,0.13,39.83
2,-0.09,1.07,0.10,41.70
2,-0.03,1.07,0.14,39.58
2,0.02,0.92,0.14,39.58
2,-0.09,1.04,0.15,41.07
2,-0.09,1.03,0.11,43.11
2,-0.04,0.97,0.11,43.60
2,-0.00,0.97,0.12,40.46
2,-0.00,1.10,0.13,41.86
2,-0.04,1.10,0.13,42.67
2,-0.02,0.90,0.14,42.67
2,-0.02,1.01,0.14,36.25
2,-0.08,1.01,0.16,41.00
2,-0.03,1.04,0.10,41.00
2,0.02,0.94,0.13,37.38
2,0.02,0.94,0.15,36.76
2,-0.08,1.07,0.15,37.27
2,-0.04,0.94,0.12,38.05
2,-0.04,0.99,0.13,42.54
2,-0.04,0.99,0.13,38.49
2,-0.02,1.09,0.11,38.49
2,-0.02,0.93,0.15,36.74
2,0.01,0.93,0.16,42.62
2,-0.09,1.03,0.16,42.62
2,-0.04,1.00,0.10,37.57
2,-0.04,1.00,0.13,41.27
2,0.01,0.96,0.13,41.27
2,-0.06,1.09,0.14,41.82
2,-0.06,1.10,0.13,38.00
2,-0.03,0.91,0.13,37.95
2,-0.08,1.01,0.14,42.65
2,-0.08,1.06,0.09,40.07
2,-0.03,1.06,0.09,39.09
2,0.02,0.93,0.13,39.09
2,0.04,1.06,0.15,38.37
2,-0.09,1.06,0.18,38.71
2,-0.04,0.95,0.12,38.71
2,-0.02,0.99,0.12,39.03
2,-0.02,0.99,0.11,36.79
2,-0.03,1.09,0.11,37.28
2,-0.01,0.91,0.15,37.28
2,-0.01,1.03,0.15,38.26
2,-0.09,1.03,0.15,38.09
2,-0.04,1.01,0.10,38.09
2,-0.05,0.97,0.12,43.08
2,0.02,0.97,0.08,40.43
2,-0.07,1.08,0.14,40.43
2,-0.04,0.92,0.13,38.75
2,-0.04,0.92,0.13,36.29
2,-0.06,1.00,0.13,36.29
2,-0.02,1.08,0.09,36.47
2,-0.02,1.11,0.13,37.21
2,0.01,0.93,0.13,37.06
2,-0.09,1.05,0.15,37.85
2,-0.09,0.97,0.12,39.08
2,-0.04,0.97,0.12,36.49
2,-0.02,0.98,0.12,36.49
2,-0.05,1.09,0.12,40.49
2,-0.05,1.09,0.14,38.73
2,-0.02,0.91,0.14,38.73
2,-0.08,1.01,0.15,38.10
2,-0.08,1.03,0.10,39.24
2,-0.02,1.03,0.10,39.87
2,0.02,0.94,0.12,42.22
2,0.02,1.07,0.14,36.81
2,-0.07,1.07,0.14,40.32
2,-0.04,0.94,0.13,40.32
2,-0.05,0.99,0.13,41.40
2,-0.05,0.99,0.16,45.39
2,-0.03,1.08,0.10,45.39
2,0.00,0.92,0.14,37.77
2,0.00,0.92,0.15,36.96
2,-0.10,1.04,0.15,36.96
2,-0.03,0.98,0.10,36.07
2,-0.03,0.97,0.13,36.98
2,-0.00,0.97,0.13,39.89
2,-0.05,1.09,0.13,39.89
2,-0.05,0.91,0.14,41.40
2,-0.03,0.91,0.14,40.57
2,-0.08,1.00,0.14,40.57
2,-0.09,1.05,0.09,38.48
2,-0.02,1.05,0.12,40.05
2,0.02,0.94,0.12,40.05
2,-0.08,1.06,0.15,37.88
2,-0.08,1.07,0.12,41.61
2,-0.04,0.94,0.12,42.09
2,-0.04,0.99,0.13,39.74
2,-0.04,1.09,0.11,38.57
2,-0.02,1.09,0.11,39.84
2,0.00,0.91,0.14,39.84
2,0.02,1.02,0.15,39.26
2,-0.10,1.02,0.17,39.28
2,-0.04,1.00,0.10,39.28
2,0.01,0.97,0.13,39.91
2,0.01,0.97,0.12,40.81
2,-0.06,1.09,0.12,40.70
2,-0.03,0.92,0.13,39.13
2,-0.03,0.88,0.13,37.06
2,-0.06,1.01,0.13,35.42
2,-0.02,1.06,0.10,35.42
2,-0.02,0.93,0.13,38.42
2,0.01,0.93,0.15,38.09
2,-0.10,1.05,0.15,38.09
2,-0.10,0.95,0.12,43.06
2,-0.04,0.95,0.12,43.51
2,-0.02,0.98,0.12,43.51
2,-0.04,1.08,0.12,40.32
2,-0.04,1.10,0.13,39.35
2,-0.01,0.92,0.13,39.58
2,-0.08,1.02,0.14,38.02
2,-0.08,1.03,0.10,41.12
2,-0.03,1.03,0.10,42.09
2,0.01,0.95,0.12,42.09
2,0.06,1.08,0.15,42.38
2,-0.07,1.08,0.14,45.94
2,-0.04,0.92,0.14,45.94
2,-0.06,1.00,0.13,39.93
2,-0.06,1.00,0.10,42.90
2,-0.02,1.07,0.10,42.42
2,-0.00,0.93,0.13,41.64
2,-0.00,0.91,0.15,40.57
2,-0.09,1.03,0.15,37.49
2,-0.04,0.97,0.10,37.49
2,-0.04,0.97,0.12,40.50
2,0.00,0.97,0.07,38.83
2,-0.04,1.09,0.13,38.83
2,-0.02,0.92,0.14,43.46
2,-0.02,0.92,0.14,40.83
2,-0.08,1.01,0.14,40.83
2,-0.03,1.04,0.10,40.36
2,-0.03,1.00,0.13,41.18
2,0.02,0.94,0.13,41.40
2,-0.07,1.07,0.14,37.48
2,-0.07,0.94,0.13,40.04
2,-0.04,0.94,0.13,40.23
2,-0.04,1.00,0.12,40.23
3,-0.06,1.08,0.13,37.13
3,-0.03,0.91,0.13,44.97
3,-0.03,1.00,0.15,39.29
3,-0.07,1.00,0.15,43.83
3,-0.03,1.06,0.10,43.83
3,-0.05,0.93,0.13,40.74
3,0.02,0.93,0.15,36.47
3,-0.09,1.06,0.15,36.47
3,-0.04,0.95,0.13,38.40
3,-0.04,0.98,0.12,38.34
3,-0.01,0.98,0.12,39.10
3,-0.03,1.08,0.12,39.10
3,-0.03,0.92,0.15,44.05
3,-0.01,0.92,0.15,39.85
3,-0.09,1.02,0.15,39.85
3,-0.09,1.01,0.10,41.43
3,-0.03,1.01,0.07,40.55
3,0.02,0.96,0.13,40.55
3,-0.06,1.08,0.14,38.86
3,-0.06,1.08,0.14,39.29
3,-0.04,0.92,0.14,39.29
3,-0.06,1.00,0.13,40.73
3,-0.06,0.95,0.10,39.62
3,-0.02,1.07,0.10,39.76
3,0.01,0.93,0.13,39.76
3,0.01,1.05,0.15,40.93
3,-0.08,1.05,0.17,40.00
3,-0.04,0.97,0.11,40.00
3,-0.01,0.98,0.12,40.55
3,-0.01,0.98,0.12,42.13
3,-0.05,1.08,0.12,42.13
3,-0.02,0.91,0.14,38.56
3,-0.02,0.89,0.14,42.47
3,-0.08,1.01,0.14,42.86
3,-0.03,1.02,0.11,42.86
3,-0.03,0.95,0.13,37.55
3,0.01,0.95,0.13,41.03
3,-0.07,1.06,0.15,41.03
3,-0.10,0.93,0.13,47.60
3,-0.04,0.93,0.13,43.67
3,-0.04,0.99,0.13,43.67
3,-0.03,1.08,0.11,41.01
3,-0.03,1.08,0.13,40.06
3,-0.00,0.92,0.13,40.29
3,-0.09,1.04,0.15,40.29
3,-0.09,1.05,0.11,36.94
3,-0.03,0.98,0.11,47.23
3,0.00,0.97,0.12,47.23
3,0.00,1.09,0.14,40.72
3,-0.06,1.09,0.13,39.68
3,-0.02,0.92,0.13,39.68
3,-0.01,1.01,0.14,38.44
3,-0.08,1.01,0.10,39.12
3,-0.02,1.04,0.10,39.12
3,0.01,0.95,0.13,36.33
3,0.01,0.94,0.15,41.03
3,-0.08,1.06,0.15,40.94
3,-0.04,0.95,0.12,39.38
3,-0.04,0.99,0.12,37.33
3,-0.03,0.99,0.12,43.41
3,-0.03,1.08,0.11,43.41
3,-0.00,0.91,0.14,42.60
3,-0.00,0.91,0.14,42.54
3,-0.10,1.02,0.14,42.54
3,-0.03,1.01,0.10,39.80
3,-0.03,1.01,0.13,39.83
3,0.01,0.97,0.13,39.13
3,-0.06,1.07,0.14,40.70
3,-0.06,1.11,0.13,39.94
3,-0.03,0.92,0.13,39.69
3,-0.06,1.00,0.14,39.69
3,-0.06,1.06,0.10,40.38
3,-0.03,1.06,0.07,37.38
3,0.00,0.94,0.13,37.38
3,0.04,1.05,0.15,35.61
3,-0.09,1.05,0.12,38.78
3,-0.04,0.96,0.12,38.78
3,-0.01,0.98,0.12,46.17
3,-0.01,0.96,0.11,34.42
3,-0.03,1.09,0.11,34.68
3,-0.02,0.91,0.14,37.03
3,-0.02,1.02,0.15,43.14
3,-0.08,1.02,0.15,38.46
3,-0.03,1.02,0.10,38.46
3,-0.04,0.97,0.12,40.91
3,0.02,0.97,0.08,40.56
3,-0.07,1.07,0.15,40.56
3,-0.03,0.93,0.12,38.31
3,-0.03,0.93,0.12,37.39
3,-0.05,0.99,0.12,37.38
3,-0.03,1.07,0.11,40.52
3,-0.03,1.11,0.13,41.07
3,-0.01,0.92,0.13,39.33
3,-0.09,1.04,0.15,39.33
3,-0.10,0.98,0.11,37.44
3,-0.04,0.98,0.12,38.31
3,-0.00,0.98,0.12,38.31
3,-0.05,1.08,0.12,41.68
3,-0.05,1.08,0.13,48.12
3,-0.02,0.92,0.13,48.12
3,-0.08,1.01,0.15,39.10
3,-0.08,1.04,0.10,38.61
3,-0.02,1.04,0.10,38.82
3,0.01,0.95,0.12,41.18
3,0.01,1.06,0.15,42.36
3,-0.08,1.06,0.15,45.38
3,-0.04,0.94,0.12,45.38
3,-0.03,1.00,0.13,37.73
3,-0.03,1.00,0.11,41.09
3,-0.03,1.08,0.11,41.09
3,-0.01,0.92,0.15,41.56
3,-0.01,0.91,0.15,40.44
3,-0.09,1.03,0.15,40.23
3,-0.03,1.00,0.10,40.23
3,-0.03,0.96,0.13,41.38
3,0.00,0.96,0.13,44.38
3,-0.05,1.08,0.13,44.38
3,-0.03,0.92,0.13,39.04
3,-0.03,0.92,0.14,36.85
3,-0.07,1.01,0.14,36.85
3,-0.03,1.05,0.10,37.74
3,-0.03,1.05,0.13,42.03
3,0.01,0.94,0.13,42.03
3,-0.08,1.05,0.15,37.67
3,-0.08,1.02,0.12,39.30
3,-0.04,0.96,0.12,39.70
3,-0.02,0.99,0.13,38.13
3,-0.02,1.09,0.11,38.81
3,-0.03,1.09,0.08,44.69
3,-0.01,0.92,0.14,44.69
3,-0.03,1.02,0.15,41.68
3,-0.10,1.02,0.10,39.92
3,-0.03,1.02,0.10,39.92
3,0.02,0.96,0.12,36.31
3,0.02,0.95,0.14,38.97
3,-0.06,1.07,0.14,38.56
3,-0.04,0.93,0.12,39.34
3,-0.04,1.01,0.13,44.74
3,-0.06,1.01,0.13,43.43
3,-0.02,1.06,0.10,43.43
3,-0.05,0.93,0.13,42.77
3,0.01,0.93,0.15,38.97
3,-0.09,1.04,0.15,38.97
3,-0.04,0.97,0.12,38.77
3,-0.04,0.97,0.13,37.19
3,-0.00,0.98,0.13,37.05
3,-0.04,1.09,0.11,37.05
3,-0.04,1.11,0.13,40.82
3,-0.02,0.92,0.13,39.92
3,-0.08,1.02,0.14,39.92
3,-0.08,1.03,0.10,40.41
3,-0.02,1.03,0.07,42.95
3,0.01,0.96,0.13,42.95
3,0.05,1.07,0.14,34.94
3,-0.08,1.07,0.13,39.94
3,-0.04,0.94,0.13,39.94
3,-0.05,1.00,0.12,39.77
3,-0.05,0.95,0.11,34.65
3,-0.02,1.08,0.11,34.87
3,0.00,0.93,0.14,38.00
3,0.00,1.04,0.15,41.82
3,-0.09,1.04,0.15,37.95
3,-0.04,0.98,0.11,37.95
3,-0.06,0.97,0.12,41.25
3,0.00,0.97,0.07,41.74
3,-0.05,1.08,0.14,41.74
3,-0.03,0.92,0.13,36.59
3,-0.03,0.92,0.13,37.82
3,-0.07,1.01,0.13,37.91
3,-0.03,1.04,0.10,37.13
3,-0.03,1.01,0.12,42.68
3,0.02,0.94,0.12,37.95
3,-0.08,1.05,0.15,37.95
3,-0.08,0.95,0.12,37.15
3,-0.04,0.95,0.06,40.25
3,-0.03,0.98,0.13,40.25
3,-0.03,1.07,0.12,44.70
3,-0.03,1.07,0.13,37.24
3,-0.00,0.92,0.13,37.24
3,-0.08,1.03,0.14,42.84
3,-0.08,1.01,0.10,43.07
3,-0.03,1.01,0.10,43.37
3,0.01,0.96,0.13,39.46
3,0.01,1.08,0.14,38.18
3,-0.06,1.08,0.14,37.74
3,-0.04,0.93,0.14,37.74
3,-0.00,1.00,0.14,36.63
3,-0.07,1.00,0.17,40.78
3,-0.02,1.06,0.10,40.78
3,0.01,0.94,0.13,40.48
3,0.01,0.94,0.14,43.41
3,-0.09,1.05,0.14,43.69
3,-0.04,0.97,0.12,38.99
3,-0.04,0.98,0.12,39.52
3,-0.02,0.98,0.12,40.44
3,-0.04,1.07,0.13,40.44
3,-0.04,0.92,0.13,41.37
3,-0.01,0.92,0.14,40.44
3,-0.08,1.01,0.14,40.44
3,-0.09,1.03,0.09,40.39
3,-0.03,1.03,0.13,44.50
3,0.01,0.97,0.13,44.50
3,-0.07,1.07,0.14,41.06
3,-0.07,1.11,0.13,35.82
3,-0.04,0.93,0.13,35.56
3,-0.05,0.99,0.12,37.13
3,-0.05,1.07,0.11,38.24
3,-0.03,1.07,0.11,41.03
3,0.01,0.93,0.13,41.03
3,0.04,1.04,0.15,40.92
3,-0.08,1.04,0.17,34.83
3,-0.03,0.98,0.11,34.83
3,-0.01,0.98,0.13,38.99
3,-0.01,0.98,0.13,37.10
3,-0.05,1.08,0.13,37.07
3,-0.02,0.93,0.14,37.86
3,-0.02,0.88,0.13,35.69
3,-0.09,1.01,0.13,40.76
3,-0.03,1.04,0.10,40.76
3,-0.03,0.95,0.12,40.22
3,0.01,0.95,0.08,36.98
3,-0.07,1.06,0.14,36.98
3,-0.10,0.94,0.13,36.36
3,-0.03,0.94,0.14,39.06
3,-0.04,1.00,0.14,39.06
3,-0.02,1.07,0.11,41.70
3,-0.02,1.11,0.14,34.81
3,-0.00,0.93,0.14,35.00
3,-0.09,1.03,0.14,38.14
3,-0.09,0.99,0.12,38.06
3,-0.04,0.99,0.12,39.60
3,0.01,0.97,0.13,39.60
3,0.02,1.07,0.13,39.20
4,-0.04,0.96,0.12,46.18
4,-0.04,0.99,0.12,44.31
4,-0.02,0.99,0.12,36.28
4,-0.04,1.08,0.13,36.28
4,-0.01,0.92,0.13,37.29
4,-0.01,0.92,0.15,37.76
4,-0.08,1.01,0.15,37.76
4,-0.04,1.01,0.11,41.81
4,-0.04,1.01,0.12,45.47
4,0.01,0.96,0.12,45.87
4,-0.06,1.07,0.15,40.39
4,-0.06,1.12,0.12,37.39
4,-0.03,0.93,0.12,40.50
4,-0.05,0.99,0.13,40.50
4,-0.05,1.06,0.11,45.52
4,-0.02,1.06,0.07,39.41
4,0.01,0.94,0.13,39.41
4,0.04,1.04,0.15,41.39
4,-0.09,1.04,0.12,41.26
4,-0.04,0.97,0.12,41.26
4,-0.01,0.98,0.12,40.22
4,-0.01,0.95,0.12,40.25
4,-0.04,1.08,0.12,40.46
4,-0.02,0.93,0.14,42.81
4,-0.02,1.02,0.14,42.16
4,-0.08,1.02,0.14,36.49
4,-0.03,1.03,0.10,36.49
4,-0.05,0.96,0.14,43.99
4,0.01,0.96,0.14,40.36
4,-0.07,1.06,0.14,40.36
4,-0.04,0.94,0.13,39.02
4,-0.04,0.94,0.13,39.27
4,-0.04,1.00,0.13,39.52
4,-0.03,1.07,0.12,40.30
4,-0.03,1.11,0.13,43.06
4,0.00,0.93,0.13,39.57
4,-0.08,1.03,0.14,39.57
4,-0.08,0.99,0.11,45.10
4,-0.03,0.99,0.06,39.30
4,0.01,0.97,0.13,39.30
4,0.01,1.08,0.13,36.93
4,-0.05,1.08,0.14,40.56
4,-0.02,0.93,0.14,40.56
4,-0.07,1.01,0.14,36.90
4,-0.07,1.05,0.10,36.30
4,-0.02,1.05,0.10,36.05
4,0.01,0.95,0.12,37.62
4,0.01,1.04,0.15,39.40
4,-0.07,1.04,0.15,41.81
4,-0.03,0.95,0.11,41.81
4,-0.03,0.99,0.13,39.14
4,-0.03,0.99,0.17,36.39
4,-0.03,1.08,0.11,36.39
4,-0.01,0.93,0.14,39.09
4,-0.01,0.93,0.15,38.93
4,-0.08,1.02,0.15,38.70
4,-0.04,1.01,0.11,41.05
4,-0.04,1.04,0.13,41.07
4,0.00,0.97,0.13,37.26
4,-0.05,1.07,0.14,37.26
4,-0.05,0.93,0.13,40.36
4,-0.04,0.93,0.13,40.95
4,-0.07,1.00,0.13,40.95
4,-0.09,1.06,0.11,37.39
4,-0.03,1.06,0.13,45.62
4,0.01,0.94,0.13,45.62
4,-0.09,1.05,0.15,34.93
4,-0.09,1.02,0.12,36.36
4,-0.03,0.96,0.12,36.26
4,-0.02,0.98,0.14,37.83
4,-0.02,1.08,0.12,38.86
4,-0.04,1.08,0.12,39.85
4,-0.02,0.92,0.14,39.85
4,-0.02,1.02,0.14,47.15
4,-0.08,1.02,0.17,41.29
4,-0.03,1.02,0.10,41.29
4,0.01,0.95,0.13,41.19
4,0.01,0.95,0.14,36.17
4,-0.06,1.06,0.14,36.55
4,-0.04,0.94,0.13,38.12
4,-0.04,0.94,0.13,37.17
4,-0.05,1.00,0.13,37.64
4,-0.03,1.06,0.11,37.64
4,-0.03,0.94,0.13,38.44
4,0.00,0.94,0.15,44.24
4,-0.09,1.04,0.15,44.24
4,-0.04,0.99,0.11,42.79
4,-0.04,0.99,0.13,41.04
4,-0.01,0.97,0.13,41.04
4,-0.04,1.07,0.13,43.68
4,-0.04,1.11,0.13,48.66
4,-0.03,0.92,0.13,49.13
4,-0.08,1.01,0.14,42.08
4,-0.08,1.04,0.10,38.34
4,-0.03,1.04,0.10,38.41
4,0.01,0.95,0.13,38.41
4,0.06,1.06,0.15,42.35
4,-0.07,1.06,0.19,44.60
4,-0.04,0.95,0.12,44.60
4,-0.04,0.99,0.14,40.71
4,-0.04,0.99,0.12,35.20
4,-0.03,1.07,0.12,35.59
4,-0.00,0.93,0.13,37.94
4,-0.00,0.90,0.15,42.25
4,-0.08,1.02,0.15,40.23
4,-0.03,1.00,0.11,40.23
4,-0.03,0.98,0.12,42.45
4,0.00,0.98,0.08,39.63
4,-0.05,1.08,0.14,39.63
4,-0.03,0.92,0.13,42.70
4,-0.03,0.92,0.13,35.43
4,-0.06,1.00,0.13,35.43
4,-0.03,1.04,0.11,38.05
4,-0.03,1.01,0.13,42.92
4,0.01,0.95,0.13,42.79
4,-0.07,1.05,0.15,39.65
4,-0.07,0.96,0.11,40.24
4,-0.04,0.96,0.11,37.42
4,-0.02,0.99,0.11,37.42
4,-0.03,1.08,0.13,38.75
4,-0.03,1.08,0.14,44.39
4,-0.02,0.92,0.14,44.39
4,-0.08,1.01,0.14,36.83
4,-0.08,1.02,0.10,43.13
4,-0.03,1.02,0.10,43.53
4,0.01,0.97,0.13,38.05
4,0.01,1.07,0.14,39.28
4,-0.06,1.07,0.14,38.64
4,-0.04,0.93,0.13,38.64
4,-0.06,0.99,0.14,38.49
4,-0.06,0.99,0.16,40.03
4,-0.03,1.06,0.10,40.03
4,-0.00,0.94,0.13,36.98
4,-0.00,0.94,0.15,43.52
4,-0.08,1.04,0.15,43.52
4,-0.04,0.97,0.12,39.72
4,-0.04,0.98,0.13,45.22
4,-0.01,0.98,0.13,45.11
4,-0.04,1.07,0.12,35.71
4,-0.04,0.93,0.14,37.15
4,-0.02,0.93,0.14,40.97
4,-0.08,1.01,0.14,40.97
4,-0.10,1.03,0.10,40.54
4,-0.03,1.03,0.12,40.51
4,0.01,0.95,0.12,40.51
4,-0.07,1.05,0.14,41.86
4,-0.07,1.01,0.13,39.52
4,-0.03,0.94,0.13,39.78
4,-0.04,1.00,0.13,38.22
4,-0.04,1.06,0.11,39.96
4,-0.03,1.06,0.11,41.64
4,0.00,0.93,0.14,41.64
4,0.03,1.03,0.15,40.43
4,-0.09,1.03,0.18,38.02
4,-0.03,0.98,0.11,38.02
4,0.00,0.97,0.12,39.10
4,0.00,0.97,0.13,37.76
4,-0.04,1.07,0.13,37.76
4,-0.04,0.93,0.13,39.36
4,-0.04,0.89,0.13,41.77
4,-0.06,1.01,0.13,41.84
4,-0.03,1.05,0.11,41.06
4,-0.03,0.95,0.12,39.74
4,0.01,0.95,0.08,37.71
4,-0.08,1.06,0.14,37.71
4,-0.10,0.96,0.12,36.35
4,-0.04,0.96,0.12,39.28
4,-0.03,0.99,0.12,39.28
4,-0.03,1.08,0.11,42.52
4,-0.03,1.11,0.14,37.97
4,-0.01,0.93,0.14,38.03
4,-0.08,1.03,0.15,38.81
4,-0.08,1.01,0.11,45.60
4,-0.04,1.01,0.11,38.45
4,0.01,0.97,0.12,38.45
4,0.00,1.07,0.13,42.30
4,-0.06,1.07,0.13,41.45
4,-0.03,0.94,0.13,41.45
4,-0.06,1.00,0.13,39.27
4,-0.06,1.00,0.11,41.95
4,-0.02,1.06,0.11,41.92
4,0.01,0.94,0.13,39.57
4,0.01,0.98,0.14,39.63
4,-0.08,1.04,0.14,36.43
4,-0.04,0.97,0.12,36.43
4,-0.04,0.98,0.12,42.16
4,-0.02,0.98,0.12,40.07
4,-0.04,1.07,0.12,40.07
4,-0.02,0.93,0.14,39.62
4,-0.02,0.93,0.15,35.98
4,-0.08,1.01,0.15,35.98
4,-0.03,1.02,0.10,36.27
4,-0.03,1.03,0.12,41.69
4,0.01,0.97,0.12,42.11
4,-0.06,1.06,0.14,42.11
4,-0.06,0.95,0.12,36.35
4,-0.04,0.95,0.12,37.18
4,-0.05,1.00,0.13,37.18
4,-0.03,1.06,0.12,39.77
4,-0.03,1.06,0.08,43.34
4,0.00,0.93,0.14,43.34
4,-0.09,1.04,0.15,38.73
4,-0.09,1.04,0.11,41.24
4,-0.04,0.98,0.11,41.42
4,-0.01,0.99,0.12,39.85
4,-0.01,0.94,0.14,39.29
4,-0.04,1.06,0.14,38.79
4,-0.03,0.93,0.13,38.79
4,-0.03,1.01,0.13,40.17
4,-0.07,1.01,0.17,38.88
4,-0.03,1.04,0.11,38.88
4,-0.05,0.95,0.12,38.06
4,0.01,0.95,0.14,40.74
4,-0.06,1.05,0.14,40.74
4,-0.04,0.95,0.12,39.76
4,-0.04,0.99,0.13,38.12
4,-0.04,0.99,0.13,37.88
4,-0.03,1.07,0.12,40.23
4,-0.03,0.93,0.13,39.79
4,-0.01,0.93,0.13,41.28
4,-0.09,1.03,0.15,41.28
4,-0.10,1.00,0.12,39.95
4,-0.03,1.00,0.07,39.01
4,0.00,0.97,0.13,39.01
4,-0.05,1.07,0.14,36.12
4,-0.05,1.07,0.13,39.38
4,-0.04,0.93,0.13,39.24
4,-0.06,1.00,0.13,39.24
4,-0.06,1.05,0.11,40.50
4,-0.03,1.05,0.11,37.47
4,0.00,0.95,0.13,37.47
4,0.00,1.04,0.15,36.36
4,-0.08,1.04,0.18,36.94
5,-0.03,0.96,0.12,38.82
5,0.00,0.96,0.12,40.07
5,-0.06,1.06,0.13,40.07
5,-0.04,0.94,0.12,41.82
5,-0.04,0.94,0.12,39.72
5,-0.06,1.00,0.12,39.72
5,-0.03,1.06,0.11,36.93
5,-0.03,1.06,0.14,35.44
5,-0.00,0.94,0.14,35.44
5,-0.07,1.04,0.15,36.74
5,-0.07,1.04,0.11,38.48
5,-0.04,0.97,0.11,38.36
5,-0.01,0.98,0.13,42.28
5,-0.01,1.07,0.13,40.24
5,-0.05,1.07,0.13,38.24
5,-0.02,0.93,0.14,38.24
5,-0.02,1.01,0.15,40.33
5,-0.08,1.01,0.10,42.50
5,-0.02,1.04,0.10,42.50
5,0.00,0.95,0.13,38.50
5,0.00,0.99,0.14,43.44
5,-0.07,1.05,0.14,43.25
5,-0.04,0.94,0.12,40.12
5,-0.04,1.00,0.13,38.63
5,-0.04,1.00,0.13,37.72
5,-0.03,1.06,0.12,37.72
5,-0.01,0.93,0.13,42.79
5,-0.01,0.93,0.14,37.39
5,-0.08,1.02,0.14,37.39
5,-0.04,0.99,0.11,37.82
5,-0.04,0.99,0.12,37.24
5,-0.01,0.97,0.12,37.26
5,-0.05,1.06,0.13,38.82
5,-0.05,1.06,0.14,39.10
5,-0.03,0.93,0.14,37.03
5,-0.07,1.00,0.14,37.03
5,-0.07,1.04,0.11,40.94
5,-0.02,1.04,0.07,37.07
5,-0.00,0.95,0.13,37.07
5,-0.01,1.04,0.15,33.98
5,-0.07,1.04,0.13,42.24
5,-0.04,0.96,0.13,42.24
5,-0.03,1.00,0.13,41.44
5,-0.03,0.94,0.12,34.98
5,-0.03,1.07,0.12,34.77
5,-0.01,0.94,0.13,36.34
5,-0.01,1.02,0.14,42.87
5,-0.08,1.02,0.14,37.55
5,-0.03,1.01,0.11,37.55
5,-0.00,0.96,0.12,38.78
5,-0.00,0.96,0.07,39.05
5,-0.06,1.06,0.14,39.05
5,-0.04,0.93,0.13,41.03
5,-0.04,0.93,0.13,40.20
5,-0.06,1.00,0.13,40.59
5,-0.03,1.05,0.11,46.08
5,-0.03,1.00,0.13,40.62
5,0.00,0.94,0.13,40.98
5,-0.08,1.04,0.15,40.98
5,-0.11,0.97,0.12,37.37
5,-0.04,0.97,0.12,36.70
5,-0.02,0.99,0.12,36.70
5,-0.04,1.06,0.13,40.70
5,-0.04,1.06,0.13,38.67
5,-0.02,0.93,0.13,38.67
5,-0.08,1.01,0.15,38.28
5,-0.08,1.03,0.11,46.48
5,-0.04,1.03,0.11,46.26
5,0.01,0.96,0.12,41.56
5,0.01,1.06,0.15,37.37
5,-0.06,1.06,0.15,35.42
5,-0.04,0.95,0.12,35.42
5,-0.06,1.00,0.12,37.66
5,-0.06,1.00,0.11,42.64
5,-0.03,1.06,0.11,42.64
5,0.00,0.94,0.13,38.82
5,0.00,0.97,0.14,39.91
5,-0.08,1.03,0.14,40.03
5,-0.04,0.99,0.11,43.16
5,-0.04,0.98,0.13,40.76
5,-0.01,0.98,0.13,35.73
5,-0.05,1.06,0.13,35.73
5,-0.03,0.94,0.14,43.46
5,-0.03,0.94,0.14,39.16
5,-0.08,1.01,0.14,39.16
5,-0.03,1.04,0.11,42.18
5,-0.03,1.04,0.13,37.93
5,0.01,0.96,0.13,37.93
5,-0.07,1.05,0.14,39.73
5,-0.07,1.02,0.12,41.63
5,-0.04,0.96,0.12,42.09
5,-0.03,0.99,0.13,41.30
5,-0.03,1.06,0.11,43.90
5,-0.03,1.06,0.11,43.29
5,-0.00,0.93,0.13,43.29
5,-0.02,1.02,0.15,38.66
5,-0.08,1.02,0.11,37.66
5,-0.04,1.00,0.11,37.66
5,0.00,0.97,0.13,39.10
5,0.00,0.94,0.13,40.47
5,-0.05,1.06,0.13,39.97
5,-0.04,0.94,0.13,43.10
5,-0.04,1.00,0.14,41.67
5,-0.06,1.00,0.14,36.32
5,-0.03,1.05,0.10,36.32
5,-0.00,0.94,0.13,42.56
5,-0.00,0.94,0.15,42.15
5,-0.08,1.04,0.15,42.15
5,-0.04,0.98,0.12,39.23
5,-0.04,0.98,0.13,36.79
5,-0.03,0.99,0.13,36.79
5,-0.03,1.06,0.12,35.43
5,-0.03,1.05,0.13,43.39
5,-0.02,0.92,0.13,41.22
5,-0.08,1.02,0.14,41.22
5,-0.08,1.01,0.10,42.93
5,-0.03,1.01,0.06,42.23
5,0.00,0.97,0.13,42.23
5,0.01,1.06,0.14,38.86
5,-0.05,1.06,0.13,39.04
5,-0.04,0.94,0.13,39.04
5,-0.05,1.00,0.13,41.71
5,-0.05,1.05,0.12,40.10
5,-0.04,1.05,0.12,40.29
5,0.00,0.94,0.13,40.29
5,0.00,1.03,0.15,38.19
5,-0.08,1.03,0.15,42.16
5,-0.05,0.98,0.12,42.16
5,-0.01,0.99,0.12,38.80
5,-0.01,0.99,0.07,40.29
5,-0.04,1.06,0.13,40.29
5,-0.03,0.94,0.13,38.30
5,-0.03,0.94,0.13,36.44
5,-0.07,1.01,0.13,36.62
5,-0.03,1.03,0.10,40.53
5,-0.03,1.02,0.13,44.34
5,0.01,0.96,0.13,36.51
5,-0.07,1.05,0.15,36.51
5,-0.07,0.94,0.12,37.34
5,-0.04,0.94,0.12,41.42
5,-0.05,1.00,0.12,41.42
5,-0.03,1.06,0.11,41.04
5,-0.03,1.06,0.13,35.91
5,-0.01,0.95,0.13,35.91
5,-0.09,1.03,0.15,37.70
5,-0.09,1.05,0.11,39.59
5,-0.04,0.99,0.11,39.64
5,-0.01,0.98,0.13,40.42
5,-0.01,1.06,0.12,43.23
5,-0.04,1.06,0.12,38.36
5,-0.03,0.92,0.14,38.36
5,-0.06,1.00,0.14,39.59
5,-0.06,1.00,0.17,39.91
5,-0.03,1.04,0.11,39.91
5,0.00,0.95,0.13,42.05
5,0.00,0.98,0.14,43.82
5,-0.07,1.04,0.14,44.01
5,-0.04,0.96,0.12,39.31
5,-0.04,0.99,0.12,38.76
5,-0.03,0.99,0.12,39.22
5,-0.04,1.06,0.13,39.22
5,-0.01,0.93,0.13,39.76
5,-0.01,0.93,0.13,38.26
5,-0.09,1.01,0.13,38.26
5,-0.03,1.01,0.12,40.51
5,-0.03,1.01,0.13,42.51
5,0.00,0.97,0.13,42.51
5,-0.05,1.06,0.14,41.09
5,-0.05,1.01,0.13,39.68
5,-0.03,0.95,0.13,39.69
5,-0.05,1.01,0.13,40.47
5,-0.05,1.05,0.11,38.45
5,-0.03,1.05,0.07,42.69
5,0.00,0.94,0.13,42.69
5,0.04,1.03,0.14,40.05
5,-0.08,1.03,0.13,40.67
5,-0.04,0.97,0.13,40.67
5,-0.01,0.98,0.12,40.38
5,-0.01,0.94,0.13,36.24
5,-0.04,1.06,0.13,35.97
5,-0.02,0.94,0.13,37.54
5,-0.02,1.01,0.14,39.73
5,-0.08,1.01,0.14,37.89
5,-0.04,1.03,0.11,37.89
5,-0.06,0.97,0.12,38.19
5,0.00,0.97,0.08,41.36
5,-0.06,1.06,0.14,41.36
5,-0.04,0.95,0.13,43.78
5,-0.04,0.95,0.13,37.35
5,-0.05,1.00,0.13,37.35
5,-0.03,1.06,0.11,41.40
5,-0.03,1.01,0.12,41.18
5,-0.00,0.95,0.12,40.85
5,-0.08,1.03,0.14,36.94
5,-0.08,0.99,0.11,42.77
5,-0.04,0.99,0.07,38.07
5,-0.01,0.98,0.13,38.07
5,-0.05,1.07,0.13,37.91
5,-0.05,1.07,0.14,39.53
5,-0.03,0.94,0.14,39.53
5,-0.07,1.01,0.13,43.19
5,-0.07,1.03,0.10,41.50
5,-0.03,1.03,0.10,41.65
5,0.00,0.96,0.12,40.08
5,0.00,1.05,0.14,38.79
5,-0.06,1.05,0.14,40.17
5,-0.05,0.96,0.12,40.17
5,-0.04,0.99,0.13,41.07
5,-0.04,0.99,0.17,40.92
5,-0.03,1.06,0.11,40.92
5,-0.01,0.94,0.13,41.10
5,-0.01,0.94,0.13,41.26
5,-0.08,1.01,0.13,41.22
5,-0.04,1.00,0.11,38.87
5,-0.04,0.98,0.12,41.11
5,-0.01,0.98,0.12,37.55
5,-0.05,1.07,0.13,37.55
5,-0.05,0.93,0.13,35.99
5,-0.04,0.93,0.13,40.31
5,-0.06,1.00,0.13,40.31
5,-0.03,1.04,0.11,35.54
5,-0.03,1.04,0.13,38.59
5,-0.00,0.96,0.13,38.59
5,-0.07,1.04,0.14,38.56
5,-0.07,1.04,0.12,41.20
5,-0.04,0.98,0.12,41.31
5,-0.02,0.98,0.12,38.96
5,-0.02,1.07,0.12,40.55
5,-0.03,1.07,0.12,42.37
5,-0.01,0.93,0.14,42.37
5,-0.02,1.02,0.15,41.63
5,-0.08,1.02,0.16,45.11
5,-0.04,1.01,0.10,45.11
6,0.01,0.94,0.13,34.72
6,-0.08,1.03,0.14,34.72
6,-0.10,0.98,0.11,43.42
6,-0.03,0.98,0.12,39.61
6,-0.02,0.98,0.12,39.61
6,-0.04,1.07,0.13,39.24
6,-0.04,1.06,0.13,39.53
6,-0.02,0.94,0.13,39.79
6,-0.07,1.01,0.14,39.01
6,-0.07,1.02,0.11,42.15
6,-0.02,1.02,0.11,37.71
6,0.00,0.97,0.12,37.71
6,0.00,1.05,0.15,36.06
6,-0.06,1.05,0.19,41.08
6,-0.04,0.94,0.12,41.08
6,-0.04,1.00,0.13,33.68
6,-0.04,1.00,0.12,40.47
6,-0.03,1.06,0.12,39.93
6,-0.00,0.94,0.13,37.58
6,-0.00,0.96,0.15,40.56
6,-0.08,1.02,0.15,42.26
6,-0.04,0.99,0.12,42.26
6,-0.04,0.98,0.12,38.53
6,-0.01,0.98,0.07,35.41
6,-0.05,1.06,0.13,35.41
6,-0.03,0.93,0.13,36.32
6,-0.03,0.93,0.14,39.91
6,-0.07,1.00,0.14,39.91
6,-0.02,1.05,0.11,47.89
6,-0.02,1.02,0.13,40.27
6,0.01,0.95,0.13,40.32
6,-0.07,1.04,0.14,42.67
6,-0.07,0.96,0.13,42.57
6,-0.04,0.96,0.13,42.34
6,-0.03,0.99,0.13,42.34
6,-0.03,1.06,0.12,40.52
6,-0.03,1.06,0.07,41.69
6,-0.01,0.94,0.14,41.69
6,-0.08,1.02,0.14,36.44
6,-0.08,1.02,0.12,36.06
6,-0.04,1.01,0.12,36.57
6,0.00,0.96,0.12,40.48
6,0.00,1.05,0.13,40.52
6,-0.05,1.05,0.13,40.47
6,-0.03,0.95,0.13,40.47
6,-0.00,1.00,0.13,38.78
6,-0.06,1.00,0.17,39.91
6,-0.03,1.05,0.11,39.91
6,0.00,0.95,0.12,37.45
6,0.00,0.95,0.14,42.34
6,-0.08,1.04,0.14,42.34
6,-0.04,0.97,0.12,40.69
6,-0.04,0.99,0.12,38.99
6,-0.02,0.99,0.12,38.59
6,-0.04,1.06,0.12,44.08
6,-0.04,0.94,0.13,37.47
6,-0.02,0.94,0.13,40.83
6,-0.07,1.00,0.14,40.83
6,-0.09,1.02,0.11,42.69
6,-0.03,1.02,0.06,44.32
6,-0.00,0.96,0.13,44.32
6,-0.06,1.05,0.13,40.06
6,-0.06,1.02,0.12,43.49
6,-0.03,0.95,0.12,43.29
6,-0.04,0.99,0.13,38.59
6,-0.04,1.05,0.12,42.28
6,-0.03,1.05,0.12,38.86
6,-0.01,0.94,0.13,38.86
6,-0.02,1.03,0.14,40.75
6,-0.08,1.03,0.17,42.02
6,-0.04,0.98,0.11,42.02
6,-0.01,0.98,0.13,39.96
6,-0.01,0.98,0.13,40.80
6,-0.05,1.06,0.13,40.80
6,-0.03,0.93,0.14,38.38
6,-0.03,0.88,0.14,40.59
6,-0.07,1.00,0.14,40.59
6,-0.03,1.03,0.10,39.02
6,-0.03,0.97,0.13,41.97
6,-0.00,0.97,0.15,41.54
6,-0.07,1.06,0.15,41.54
6,-0.10,0.96,0.12,40.17
6,-0.04,0.96,0.14,46.96
6,-0.04,0.99,0.14,46.96
6,-0.04,1.06,0.12,44.19
6,-0.04,1.00,0.13,39.29
6,-0.01,0.94,0.13,39.86
6,-0.08,1.02,0.14,43.77
6,-0.08,1.00,0.11,46.08
6,-0.04,1.00,0.11,41.88
6,-0.00,0.98,0.12,41.88
6,-0.05,1.06,0.13,36.74
6,-0.05,1.06,0.19,41.44
6,-0.03,0.94,0.12,41.44
6,-0.06,1.00,0.13,41.20
6,-0.06,1.00,0.12,38.92
6,-0.03,1.05,0.12,38.92
6,-0.01,0.96,0.13,37.72
6,-0.01,0.97,0.15,44.78
6,-0.08,1.03,0.15,44.72
6,-0.04,0.97,0.12,45.50
6,-0.04,0.98,0.12,36.59
6,-0.02,0.98,0.12,38.14
6,-0.04,1.05,0.12,38.14
6,-0.01,0.94,0.12,38.54
6,-0.01,0.94,0.15,40.30
6,-0.08,1.02,0.15,40.30
6,-0.04,1.02,0.11,36.91
6,-0.04,1.03,0.13,41.11
6,-0.00,0.96,0.13,40.82
6,-0.06,1.06,0.14,40.04
6,-0.06,0.94,0.12,38.62
6,-0.05,0.94,0.12,42.48
6,-0.05,0.99,0.13,42.48
6,-0.03,1.05,0.11,41.33
6,-0.03,1.05,0.07,38.83
6,-0.00,0.95,0.14,38.83
6,-0.07,1.04,0.14,40.88
6,-0.07,1.04,0.12,40.26
6,-0.04,0.98,0.12,40.26
6,-0.02,0.98,0.12,37.33
6,-0.02,0.94,0.12,44.59
6,-0.04,1.06,0.12,41.16
6,-0.02,0.94,0.13,41.16
6,-0.02,1.01,0.14,39.76
6,-0.07,1.01,0.17,38.41
6,-0.03,1.02,0.11,38.41
6,-0.01,0.97,0.13,39.09
6,-0.01,0.97,0.14,38.09
6,-0.06,1.05,0.14,38.09
6,-0.04,0.96,0.13,37.22
6,-0.04,0.99,0.14,39.01
6,-0.04,0.99,0.14,39.05
6,-0.03,1.06,0.12,39.84
6,-0.03,0.95,0.13,43.19
6,-0.00,0.95,0.13,37.49
6,-0.08,1.03,0.14,37.49
6,-0.10,0.99,0.12,42.41
6,-0.04,0.99,0.12,37.68
6,-0.01,0.98,0.12,37.68
6,-0.05,1.06,0.13,40.77
6,-0.05,1.06,0.13,44.68
6,-0.02,0.94,0.13,44.75
6,-0.06,1.00,0.14,40.84
6,-0.06,0.97,0.11,41.63
6,-0.03,1.03,0.11,44.20
6,0.01,0.96,0.11,44.20
6,0.01,1.04,0.14,42.67
6,-0.06,1.04,0.18,39.15
6,-0.05,0.97,0.12,39.15
6,-0.03,0.99,0.12,40.05
6,-0.03,0.99,0.12,43.57
6,-0.03,1.06,0.12,43.57
6,-0.01,0.94,0.13,39.18
6,-0.01,0.89,0.14,39.86
6,-0.07,1.02,0.14,39.72
6,-0.04,1.00,0.11,42.85
6,-0.04,0.97,0.13,40.39
6,-0.00,0.97,0.13,34.83
6,-0.05,1.06,0.13,34.83
6,-0.03,0.95,0.13,37.58
6,-0.03,0.95,0.13,40.24
6,-0.06,1.00,0.13,40.24
6,-0.03,1.05,0.11,36.16
6,-0.03,1.05,0.13,46.71
6,-0.00,0.95,0.13,46.49
6,-0.08,1.03,0.14,40.22
6,-0.08,1.04,0.13,38.72
6,-0.04,0.98,0.13,37.49
6,-0.02,0.98,0.12,37.49
6,-0.04,1.06,0.14,42.48
6,-0.04,1.06,0.14,44.05
6,-0.02,0.94,0.14,44.05
6,-0.07,1.01,0.15,42.22
6,-0.07,1.01,0.11,41.67
6,-0.04,1.02,0.11,41.67
6,0.00,0.96,0.12,43.14
6,0.00,0.99,0.13,37.94
6,-0.06,1.05,0.13,37.56
6,-0.04,0.95,0.13,41.48
6,-0.04,0.99,0.13,36.85
6,-0.04,0.99,0.13,42.53
6,-0.03,1.05,0.11,42.53
6,-0.06,0.95,0.13,38.51
6,0.00,0.95,0.14,39.91
6,-0.07,1.03,0.14,39.91
6,-0.05,0.99,0.12,42.84
6,-0.05,0.97,0.13,41.86
6,-0.02,0.97,0.13,41.66
6,-0.04,1.06,0.13,43.23
6,-0.04,0.94,0.13,41.23
6,-0.02,0.94,0.13,43.07
6,-0.07,1.01,0.14,43.07
6,-0.09,1.03,0.12,46.71
6,-0.03,1.03,0.12,41.06
6,-0.01,0.96,0.12,41.06
6,-0.07,1.05,0.13,40.70
6,-0.07,1.05,0.12,40.43
6,-0.04,0.97,0.12,40.43
6,-0.03,0.99,0.13,39.43
6,-0.03,0.99,0.12,41.14
6,-0.04,1.05,0.12,41.05
6,-0.02,0.95,0.13,44.97
6,-0.02,1.02,0.15,43.29
6,-0.08,1.02,0.15,41.63
6,-0.04,1.00,0.11,41.63
6,-0.06,0.98,0.12,40.94
6,0.00,0.98,0.13,43.04
6,-0.04,1.05,0.13,43.04
6,-0.03,0.95,0.13,42.68
6,-0.03,1.00,0.13,42.47
6,-0.05,1.00,0.13,42.71
6,-0.04,1.03,0.11,40.36
6,-0.04,0.96,0.13,39.67
6,-0.01,0.96,0.13,42.49
6,-0.07,1.04,0.14,42.49
6,-0.11,0.97,0.12,37.98
6,-0.05,0.97,0.06,40.97
6,-0.03,0.97,0.13,40.97
6,-0.03,1.05,0.12,40.51
6,-0.03,1.05,0.13,38.64
6,-0.02,0.94,0.13,38.64
6,-0.07,1.01,0.14,40.32
6,-0.07,1.01,0.11,37.92
6,-0.03,1.01,0.11,37.37
6,-0.00,0.97,0.12,37.37
6,-0.00,1.06,0.13,37.90
6,-0.06,1.06,0.13,41.99
6,-0.04,0.96,0.13,41.99
6,-0.04,1.00,0.13,38.34
6,-0.04,1.00,0.12,42.26
6,-0.03,1.06,0.12,42.26
6,-0.00,0.95,0.12,39.71
7,-0.07,1.01,0.14,42.79
7,-0.03,1.03,0.11,41.62
7,-0.03,1.03,0.13,37.63
7,0.01,0.97,0.13,38.23
7,-0.06,1.04,0.15,37.44
7,-0.06,0.95,0.12,41.07
7,-0.04,0.95,0.12,39.69
7,-0.04,0.99,0.12,39.69
7,-0.03,1.05,0.12,38.97
7,-0.03,1.05,0.12,37.06
7,-0.01,0.95,0.12,37.06
7,-0.08,1.03,0.14,38.60
7,-0.08,1.03,0.11,41.14
7,-0.03,1.00,0.11,41.14
7,-0.01,0.98,0.13,37.45
7,-0.01,0.99,0.14,37.79
7,-0.05,1.05,0.14,37.72
7,-0.03,0.95,0.13,39.28
7,-0.03,1.00,0.14,43.53
7,-0.06,1.00,0.14,43.28
7,-0.03,1.03,0.11,43.28
7,-0.00,0.96,0.13,35.37
7,-0.00,0.96,0.14,39.73
7,-0.06,1.05,0.14,39.73
7,-0.04,0.97,0.12,43.60
7,-0.04,0.99,0.12,38.01
7,-0.03,0.99,0.12,37.62
7,-0.04,1.05,0.13,43.89
7,-0.04,0.94,0.13,37.49
7,-0.01,0.94,0.13,43.98
7,-0.08,1.02,0.13,43.98
7,-0.10,1.00,0.11,37.70
7,-0.04,1.00,0.12,39.82
7,-0.01,0.98,0.12,39.82
7,-0.06,1.05,0.13,37.31
7,-0.06,1.05,0.13,37.11
7,-0.03,0.95,0.13,37.11
7,-0.05,1.00,0.12,36.60
7,-0.05,0.97,0.11,41.28
7,-0.04,1.04,0.11,38.30
7,-0.00,0.96,0.12,38.30
7,-0.00,1.04,0.15,39.52
7,-0.07,1.04,0.18,38.31
7,-0.04,0.97,0.12,38.31
7,-0.03,0.98,0.13,37.91
7,-0.03,0.98,0.12,38.80
7,-0.04,1.06,0.12,38.80
7,-0.02,0.95,0.14,41.81
7,-0.02,0.95,0.13,40.46
7,-0.06,1.01,0.13,40.45
7,-0.03,1.01,0.12,34.18
7,-0.03,0.96,0.13,42.77
7,-0.00,0.96,0.13,44.03
7,-0.06,1.05,0.14,44.03
7,-0.04,0.95,0.12,46.02
7,-0.04,0.95,0.06,42.44
7,-0.04,0.99,0.13,42.44
7,-0.03,1.06,0.12,40.69
7,-0.03,1.06,0.13,38.63
7,-0.00,0.95,0.13,38.63
7,-0.07,1.02,0.14,38.85
7,-0.07,1.05,0.12,39.86
7,-0.05,0.99,0.12,40.78
7,-0.02,0.99,0.12,40.78
7,-0.02,1.06,0.12,40.67
7,-0.04,1.06,0.07,43.16
7,-0.02,0.95,0.13,43.16
7,-0.06,1.01,0.14,40.33
7,-0.06,1.01,0.11,45.29
7,-0.03,1.03,0.11,45.29
7,-0.00,0.96,0.12,41.45
7,-0.00,0.98,0.15,44.24
7,-0.07,1.04,0.15,43.84
7,-0.04,0.96,0.13,37.57
7,-0.04,1.00,0.13,38.73
7,-0.03,1.00,0.13,41.75
7,-0.04,1.05,0.13,41.75
7,-0.00,0.95,0.14,43.40
7,-0.00,0.95,0.14,41.18
7,-0.08,1.02,0.14,41.18
7,-0.04,0.99,0.12,40.98
7,-0.04,0.99,0.13,40.23
7,-0.01,0.97,0.13,40.57
7,-0.06,1.06,0.14,43.71
7,-0.06,1.01,0.13,44.32
7,-0.03,0.95,0.13,39.05
7,-0.06,1.00,0.14,39.05
7,-0.06,1.03,0.12,42.06
7,-0.03,1.03,0.07,39.35
7,-0.01,0.95,0.13,39.35
7,-0.00,1.03,0.14,40.91
7,-0.07,1.03,0.12,40.45
7,-0.04,0.98,0.12,40.45
7,-0.03,0.98,0.13,38.38
7,-0.03,0.99,0.13,42.59
7,-0.03,1.06,0.13,42.90
7,-0.02,0.94,0.13,43.69
7,-0.02,1.01,0.14,40.86
7,-0.07,1.01,0.14,41.10
7,-0.03,1.01,0.10,41.10
7,-0.01,0.96,0.13,42.12
7,-0.01,0.96,0.14,42.60
7,-0.05,1.05,0.14,42.60
7,-0.03,0.95,0.12,42.86
7,-0.03,0.95,0.13,41.19
7,-0.04,1.00,0.13,41.21
7,-0.03,1.05,0.12,41.21
7,-0.03,1.01,0.13,41.22
7,0.00,0.95,0.13,37.12
7,-0.07,1.03,0.15,37.12
7,-0.07,0.99,0.11,39.03
7,-0.04,0.99,0.12,41.83
7,-0.02,0.98,0.12,41.83
7,-0.04,1.05,0.13,39.31
7,-0.04,1.05,0.13,38.16
7,-0.02,0.95,0.13,38.16
7,-0.07,1.01,0.14,46.29
7,-0.07,1.03,0.12,39.43
7,-0.03,1.03,0.12,39.85
7,-0.00,0.97,0.13,42.98
7,-0.00,1.05,0.14,47.38
7,-0.05,1.05,0.14,43.15
7,-0.04,0.97,0.13,43.15
7,-0.04,0.99,0.14,39.31
7,-0.04,0.99,0.18,38.60
7,-0.03,1.04,0.12,38.60
7,-0.01,0.94,0.13,39.08
7,-0.01,0.94,0.15,37.41
7,-0.08,1.02,0.15,37.14
7,-0.04,1.00,0.12,39.49
7,-0.04,0.97,0.12,44.01
7,-0.01,0.97,0.12,40.75
7,-0.05,1.06,0.13,40.75
7,-0.05,0.94,0.13,43.49
7,-0.03,0.94,0.13,43.45
7,-0.06,1.01,0.13,43.45
7,-0.03,1.03,0.10,45.09
7,-0.03,1.03,0.13,39.80
7,0.01,0.96,0.13,39.80
7,-0.07,1.03,0.14,37.68
7,-0.07,1.03,0.12,42.33
7,-0.04,0.97,0.12,42.80
7,-0.03,0.99,0.13,43.59
7,-0.03,1.05,0.12,40.47
7,-0.04,1.05,0.12,43.12
7,-0.01,0.95,0.13,43.12
7,-0.01,1.02,0.14,38.85
7,-0.07,1.02,0.18,36.97
7,-0.04,1.01,0.11,36.97
7,0.00,0.97,0.11,43.45
7,0.00,0.97,0.14,40.10
7,-0.05,1.06,0.14,40.41
7,-0.04,0.96,0.13,41.20
7,-0.04,1.00,0.14,42.97
7,-0.05,1.00,0.14,45.79
7,-0.03,1.04,0.11,45.79
7,-0.00,0.96,0.13,43.97
7,-0.00,0.96,0.14,42.04
7,-0.07,1.03,0.14,42.04
7,-0.04,0.97,0.12,40.69
7,-0.04,0.97,0.12,41.80
7,-0.03,0.98,0.12,41.80
7,-0.04,1.06,0.12,42.79
7,-0.04,1.01,0.14,37.35
7,-0.02,0.94,0.14,36.83
7,-0.07,1.01,0.14,41.53
7,-0.07,1.02,0.11,42.03
7,-0.03,1.02,0.11,36.20
7,-0.00,0.97,0.12,36.20
7,-0.05,1.05,0.13,39.97
7,-0.05,1.05,0.13,38.16
7,-0.03,0.96,0.13,38.16
7,-0.04,0.99,0.13,37.94
7,-0.04,0.99,0.13,41.01
7,-0.03,1.05,0.13,40.89
7,-0.01,0.95,0.13,43.24
7,-0.01,1.03,0.15,40.23
7,-0.07,1.03,0.15,40.71
7,-0.04,0.98,0.12,40.71
7,-0.02,0.98,0.13,40.54
7,-0.02,0.98,0.13,40.80
7,-0.04,1.05,0.13,40.80
7,-0.02,0.94,0.13,41.30
7,-0.02,0.94,0.14,40.73
7,-0.06,1.01,0.14,40.97
7,-0.04,1.03,0.12,37.05
7,-0.04,1.02,0.12,38.42
7,-0.00,0.96,0.12,42.73
7,-0.06,1.04,0.14,42.73
7,-0.06,0.97,0.13,37.27
7,-0.04,0.97,0.13,40.61
7,-0.03,0.99,0.13,40.61
7,-0.03,1.05,0.13,36.70
7,-0.03,1.05,0.13,42.76
7,-0.01,0.96,0.13,42.76
7,-0.07,1.02,0.14,37.56
7,-0.07,1.06,0.11,38.84
7,-0.03,1.00,0.11,39.00
7,-0.01,0.98,0.13,42.14
7,-0.01,1.05,0.13,37.03
7,-0.05,1.05,0.13,37.35
7,-0.03,0.95,0.12,37.35
7,-0.06,1.00,0.13,40.92
7,-0.06,1.00,0.18,39.22
7,-0.03,1.03,0.11,39.22
7,-0.01,0.96,0.13,39.88
7,-0.01,0.96,0.14,41.88
7,-0.07,1.03,0.14,41.66
7,-0.04,0.97,0.12,46.36
7,-0.04,0.99,0.13,42.93
7,-0.03,0.99,0.13,37.26
7,-0.04,1.06,0.12,37.26
7,-0.04,0.95,0.13,43.59
7,-0.02,0.95,0.13,43.10
7,-0.07,1.01,0.13,43.10
7,-0.10,1.01,0.13,40.92
7,-0.04,1.01,0.13,38.73
7,0.00,0.97,0.13,38.73
7,-0.06,1.05,0.14,40.05
7,-0.06,1.01,0.13,41.45
7,-0.03,0.95,0.13,41.13
7,-0.05,1.00,0.13,42.70
7,-0.05,1.04,0.11,38.96
7,-0.03,1.04,0.11,42.80
7,-0.00,0.95,0.13,42.80
7,-0.00,1.03,0.14,41.64
7,-0.07,1.03,0.18,41.25
7,-0.04,0.99,0.12,41.25
7,-0.02,0.98,0.12,39.82
7,-0.02,0.98,0.13,38.58
7,-0.04,1.05,0.13,38.65
7,-0.02,0.95,0.13,40.21
7,-0.02,0.96,0.14,43.20
8,-0.03,1.05,0.12,43.78
8,-0.03,1.01,0.13,43.92
8,-0.01,0.95,0.13,43.87
8,-0.07,1.02,0.14,40.74
8,-0.07,0.99,0.12,46.09
8,-0.03,0.99,0.07,44.68
8,-0.01,0.98,0.13,44.68
8,-0.04,1.05,0.13,42.61
8,-0.04,1.05,0.12,44.44
8,-0.02,0.96,0.12,44.44
8,-0.06,1.00,0.14,42.78
8,-0.06,1.03,0.11,44.77
8,-0.03,1.03,0.11,45.06
8,-0.00,0.96,0.12,37.23
8,-0.00,1.04,0.13,37.26
8,-0.06,1.04,0.13,39.66
8,-0.04,0.98,0.13,39.66
8,-0.04,0.99,0.13,37.95
8,-0.04,0.99,0.13,44.22
8,-0.04,1.05,0.13,44.22
8,-0.01,0.94,0.13,39.57
8,-0.01,0.94,0.14,36.97
8,-0.06,1.01,0.14,36.97
8,-0.03,1.01,0.12,42.34
8,-0.03,1.03,0.13,42.37
8,-0.01,0.97,0.13,42.43
8,-0.05,1.05,0.14,43.99
8,-0.05,0.95,0.12,39.15
8,-0.03,0.95,0.07,40.93
8,-0.04,1.00,0.13,40.93
8,-0.03,1.04,0.12,44.97
8,-0.03,1.04,0.13,41.60
8,-0.01,0.96,0.13,41.60
8,-0.06,1.03,0.13,41.68
8,-0.06,1.04,0.12,37.70
8,-0.03,0.98,0.12,37.64
8,-0.02,0.99,0.13,41.56
8,-0.02,1.04,0.13,44.29
8,-0.04,1.04,0.13,41.81
8,-0.02,0.95,0.14,41.81
8,-0.01,1.01,0.14,42.97
8,-0.07,1.01,0.19,41.79
8,-0.04,1.02,0.12,41.79
8,-0.01,0.96,0.12,41.59
8,-0.01,0.96,0.14,40.72
8,-0.05,1.04,0.14,40.72
8,-0.04,0.96,0.12,43.48
8,-0.04,0.99,0.13,40.69
8,-0.04,0.99,0.13,41.29
8,-0.03,1.04,0.12,43.64
8,-0.03,0.95,0.12,38.87
8,-0.01,0.95,0.12,38.71
8,-0.07,1.02,0.14,38.71
8,-0.11,1.00,0.12,38.94
8,-0.04,1.00,0.13,40.54
8,-0.02,0.98,0.13,40.54
8,-0.05,1.05,0.12,42.73
8,-0.05,1.01,0.13,41.84
8,-0.02,0.95,0.13,42.14
8,-0.06,1.01,0.14,40.57
8,-0.06,1.03,0.11,41.96
8,-0.03,1.03,0.11,44.13
8,-0.01,0.97,0.13,44.13
8,-0.06,1.03,0.15,37.40
8,-0.06,1.03,0.19,40.85
8,-0.04,0.97,0.12,40.85
8,-0.04,0.99,0.13,40.58
8,-0.04,0.99,0.13,38.21
8,-0.04,1.05,0.13,38.21
8,-0.02,0.95,0.14,44.03
8,-0.02,0.96,0.14,48.13
8,-0.08,1.02,0.14,48.30
8,-0.03,1.00,0.12,42.82
8,-0.03,0.98,0.13,43.99
8,-0.01,0.98,0.13,43.68
8,-0.05,1.05,0.13,43.68
8,-0.03,0.95,0.12,40.56
8,-0.03,0.95,0.13,37.50
8,-0.05,1.00,0.13,37.50
8,-0.03,1.04,0.12,44.91
8,-0.03,1.02,0.13,38.76
8,-0.01,0.96,0.13,38.66
8,-0.06,1.04,0.14,45.71
8,-0.06,0.98,0.12,39.72
8,-0.04,0.98,0.12,42.41
8,-0.02,0.98,0.12,42.41
8,-0.04,1.05,0.13,43.89
8,-0.04,1.05,0.13,40.12
8,-0.02,0.96,0.13,40.12
8,-0.07,1.01,0.14,44.06
8,-0.07,1.01,0.11,37.89
8,-0.03,1.02,0.11,37.65
8,-0.01,0.97,0.13,40.78
8,-0.01,0.98,0.14,41.06
8,-0.06,1.04,0.14,43.27
8,-0.03,0.97,0.12,43.27
8,-0.03,0.99,0.13,40.33
8,-0.04,0.99,0.18,42.46
8,-0.04,1.04,0.12,42.46
8,-0.01,0.95,0.14,38.18
8,-0.01,0.95,0.14,38.73
8,-0.07,1.02,0.14,38.73
8,-0.03,0.98,0.12,42.67
8,-0.03,0.98,0.13,43.39
8,-0.02,0.98,0.13,43.78
8,-0.04,1.05,0.12,37.51
8,-0.04,0.96,0.13,37.09
8,-0.01,0.96,0.13,41.03
8,-0.06,1.01,0.13,41.03
8,-0.10,1.02,0.12,40.78
8,-0.03,1.02,0.12,38.42
8,-0.00,0.97,0.12,38.42
8,-0.06,1.03,0.14,37.48
8,-0.06,1.03,0.12,43.04
8,-0.03,0.97,0.12,43.12
8,-0.04,0.99,0.12,42.34
8,-0.04,0.99,0.13,35.41
8,-0.04,1.05,0.13,42.51
8,-0.01,0.95,0.13,42.51
8,-0.01,1.02,0.15,39.31
8,-0.07,1.02,0.18,43.32
8,-0.05,1.00,0.12,43.32
8,-0.02,0.98,0.12,44.14
8,-0.02,0.98,0.12,40.95
8,-0.05,1.05,0.12,40.95
8,-0.03,0.95,0.12,39.92
8,-0.03,1.00,0.13,38.58
8,-0.06,1.00,0.13,38.34
8,-0.03,1.03,0.12,39.91
8,-0.03,0.96,0.13,37.88
8,-0.01,0.96,0.13,40.29
8,-0.06,1.03,0.14,40.29
8,-0.04,0.97,0.13,36.94
8,-0.04,0.97,0.13,36.20
8,-0.03,0.99,0.13,36.20
8,-0.04,1.05,0.13,42.04
8,-0.04,1.05,0.13,41.29
8,-0.01,0.96,0.13,40.71
8,-0.07,1.02,0.15,39.93
8,-0.07,1.00,0.12,41.31
8,-0.04,1.00,0.12,42.74
8,-0.01,0.97,0.12,42.74
8,-0.05,1.04,0.14,45.35
8,-0.05,1.04,0.19,40.36
8,-0.03,0.96,0.12,40.36
8,-0.05,1.00,0.13,41.75
8,-0.05,1.00,0.12,39.56
8,-0.03,1.04,0.12,39.56
8,-0.01,0.95,0.12,43.69
8,-0.01,0.96,0.13,39.71
8,-0.07,1.02,0.13,39.42
8,-0.04,0.98,0.12,40.21
8,-0.04,0.99,0.12,38.82
8,-0.03,0.99,0.12,43.20
8,-0.04,1.05,0.13,43.20
8,-0.02,0.94,0.12,39.73
8,-0.02,0.94,0.08,44.97
8,-0.06,1.02,0.14,44.97
8,-0.05,1.02,0.11,42.81
8,-0.05,1.02,0.13,45.56
8,-0.01,0.97,0.13,45.86
8,-0.05,1.04,0.14,41.16
8,-0.05,0.96,0.12,40.33
8,-0.03,0.96,0.12,48.89
8,-0.05,0.99,0.13,48.89
8,-0.04,1.04,0.12,41.87
8,-0.04,1.04,0.07,49.12
8,-0.02,0.95,0.13,49.12
8,-0.07,1.01,0.14,41.28
8,-0.07,1.01,0.12,41.01
8,-0.03,0.99,0.12,41.01
8,-0.01,0.98,0.12,38.82
8,-0.01,0.98,0.13,42.74
8,-0.05,1.05,0.13,42.32
8,-0.02,0.96,0.12,41.53
8,-0.02,1.00,0.13,42.47
8,-0.06,1.00,0.13,40.25
8,-0.03,1.02,0.11,40.25
8,-0.01,0.97,0.12,38.90
8,-0.01,0.97,0.07,44.84
8,-0.06,1.04,0.13,44.84
8,-0.03,0.97,0.12,43.16
8,-0.03,0.99,0.13,36.87
8,-0.04,0.99,0.13,37.37
8,-0.03,1.04,0.13,35.02
8,-0.03,0.95,0.13,43.89
8,-0.02,0.95,0.13,41.96
8,-0.07,1.02,0.14,41.96
8,-0.10,1.00,0.11,43.82
8,-0.04,1.00,0.06,42.60
8,-0.01,0.98,0.13,42.60
8,-0.05,1.04,0.13,37.83
8,-0.05,1.04,0.13,39.90
8,-0.03,0.96,0.13,39.90
8,-0.06,1.00,0.14,44.31
8,-0.06,0.97,0.12,38.09
8,-0.03,1.03,0.12,38.12
8,-0.01,0.97,0.13,38.12
8,-0.01,1.03,0.15,37.26
8,-0.07,1.03,0.15,40.22
8,-0.04,0.98,0.11,40.22
8,-0.03,0.99,0.13,39.79
8,-0.03,0.99,0.12,40.24
8,-0.04,1.05,0.12,40.24
8,-0.02,0.95,0.12,40.66
8,-0.02,0.95,0.14,41.78
8,-0.06,1.01,0.14,42.16
8,-0.04,1.01,0.11,39.81
8,-0.04,0.97,0.12,39.30
8,-0.01,0.97,0.12,38.08
8,-0.05,1.04,0.14,38.08
8,-0.03,0.96,0.13,39.11
8,-0.03,0.96,0.14,40.19
8,-0.05,0.99,0.14,40.19
8,-0.03,1.04,0.12,46.72
8,-0.03,1.04,0.12,36.68
8,-0.01,0.95,0.12,36.68
8,-0.06,1.02,0.15,40.03
8,-0.06,1.05,0.12,40.17
8,-0.03,0.98,0.12,39.16
8,-0.02,0.99,0.13,39.16
8,-0.02,1.05,0.13,41.59
8,-0.04,1.05,0.13,42.72
8,-0.02,0.95,0.13,42.72
8,-0.06,1.01,0.14,43.24
8,-0.06,1.01,0.12,40.52
8,-0.04,1.02,0.12,40.52
8,-0.01,0.96,0.12,44.12
8,-0.01,0.98,0.14,44.94
8,-0.06,1.04,0.14,45.06
8,-0.04,0.96,0.13,45.06
8,-0.04,0.99,0.13,44.94
8,-0.04,0.99,0.13,44.14
9,-0.05,1.02,0.12,42.39
9,-0.02,0.96,0.12,42.87
9,-0.05,1.00,0.12,42.87
9,-0.03,1.02,0.12,40.48
9,-0.03,1.02,0.07,44.07
9,-0.00,0.96,0.13,44.07
9,-0.06,1.03,0.14,40.34
9,-0.06,1.03,0.12,41.09
9,-0.04,0.97,0.12,41.09
9,-0.03,0.99,0.13,40.99
9,-0.03,0.98,0.12,37.44
9,-0.04,1.04,0.12,37.05
9,-0.01,0.95,0.13,41.75
9,-0.01,1.01,0.15,43.34
9,-0.06,1.01,0.15,40.53
9,-0.04,1.01,0.12,40.53
9,-0.01,0.97,0.14,40.76
9,-0.01,0.97,0.13,37.19
9,-0.05,1.05,0.13,37.19
9,-0.03,0.96,0.13,48.81
9,-0.03,0.96,0.13,38.63
9,-0.05,1.00,0.13,38.69
9,-0.04,1.03,0.12,41.04
9,-0.04,0.96,0.12,43.48
9,-0.01,0.96,0.12,40.55
9,-0.07,1.02,0.15,40.55
9,-0.10,0.98,0.13,40.84
9,-0.04,0.98,0.19,43.40
9,-0.02,0.99,0.12,43.40
9,-0.04,1.05,0.12,41.76
9,-0.04,1.05,0.12,37.59
9,-0.02,0.95,0.12,37.59
9,-0.07,1.00,0.14,39.35
9,-0.07,1.02,0.12,37.79
9,-0.04,1.02,0.12,38.23
9,-0.01,0.97,0.14,44.50
9,-0.01,1.04,0.14,38.79
9,-0.06,1.04,0.13,47.18
9,-0.04,0.96,0.13,47.18
9,-0.04,1.00,0.13,40.73
9,-0.04,1.00,0.18,41.67
9,-0.04,1.04,0.12,41.67
9,-0.01,0.95,0.12,44.21
9,-0.01,0.95,0.14,46.41
9,-0.06,1.01,0.14,46.31
9,-0.03,1.00,0.12,40.05
9,-0.03,0.99,0.12,42.89
9,-0.01,0.99,0.12,37.26
9,-0.05,1.05,0.13,37.26
9,-0.02,0.95,0.13,43.06
9,-0.02,0.95,0.13,38.08
9,-0.06,1.00,0.13,38.08
9,-0.03,1.02,0.12,40.33
9,-0.03,1.02,0.13,40.06
9,-0.01,0.97,0.13,40.06
9,-0.06,1.04,0.14,37.64
9,-0.06,1.03,0.13,42.09
9,-0.03,0.97,0.13,43.47
9,-0.03,0.99,0.12,43.47
9,-0.03,1.04,0.13,41.67
9,-0.04,1.04,0.18,39.86
9,-0.01,0.96,0.12,39.86
9,-0.06,1.02,0.14,41.09
9,-0.06,1.02,0.11,41.24
9,-0.04,1.01,0.11,41.24
9,-0.02,0.98,0.13,43.92
9,-0.02,0.99,0.14,37.66
9,-0.05,1.05,0.14,37.74
9,-0.03,0.96,0.12,37.74
9,-0.03,0.99,0.13,42.70
9,-0.06,0.99,0.13,45.52
9,-0.04,1.03,0.12,45.52
9,-0.02,0.96,0.13,41.58
9,-0.02,0.96,0.14,42.50
9,-0.06,1.03,0.14,42.50
9,-0.04,0.98,0.12,47.70
9,-0.04,0.98,0.12,39.41
9,-0.02,0.99,0.12,39.15
9,-0.03,1.05,0.12,43.07
9,-0.03,1.01,0.13,40.78
9,-0.02,0.95,0.13,37.82
9,-0.07,1.01,0.14,37.82
9,-0.07,1.01,0.12,39.26
9,-0.04,1.01,0.06,39.02
9,-0.01,0.97,0.13,39.02
9,-0.05,1.04,0.14,41.87
9,-0.05,1.04,0.12,39.09
9,-0.03,0.96,0.12,39.09
9,-0.05,0.99,0.13,41.99
9,-0.05,0.97,0.13,39.53
9,-0.03,1.03,0.13,39.44
9,-0.01,0.96,0.13,43.35
9,-0.01,1.03,0.13,38.31
9,-0.06,1.03,0.13,38.39
9,-0.04,0.99,0.11,38.39
9,-0.02,0.99,0.12,41.24
9,-0.02,0.99,0.12,34.51
9,-0.05,1.04,0.12,34.51
9,-0.02,0.96,0.12,41.78
9,-0.02,0.96,0.14,43.92
9,-0.06,1.00,0.14,44.24
9,-0.04,1.02,0.13,42.67
9,-0.04,1.04,0.14,37.30
9,-0.01,0.98,0.14,41.41
9,-0.06,1.04,0.14,41.41
9,-0.06,0.97,0.13,38.42
9,-0.04,0.97,0.13,41.36
9,-0.05,0.99,0.13,41.36
9,-0.04,1.05,0.12,41.26
9,-0.04,1.05,0.13,44.49
9,-0.02,0.95,0.13,44.49
9,-0.06,1.02,0.14,42.04
9,-0.06,1.06,0.12,39.44
9,-0.04,1.00,0.12,39.76
9,-0.01,0.98,0.12,41.32
9,-0.01,1.04,0.13,42.48
9,-0.05,1.04,0.13,46.98
9,-0.03,0.95,0.13,46.98
9,-0.06,1.00,0.13,48.29
9,-0.06,1.00,0.18,43.95
9,-0.04,1.03,0.12,43.95
9,-0.01,0.96,0.13,40.44
9,-0.01,0.96,0.14,44.23
9,-0.06,1.04,0.14,44.26
9,-0.04,0.98,0.12,45.05
9,-0.04,0.99,0.13,41.74
9,-0.03,0.99,0.13,42.67
9,-0.04,1.04,0.13,42.67
9,-0.04,0.95,0.13,37.32
9,-0.02,0.95,0.14,40.04
9,-0.07,1.01,0.14,40.04
9,-0.11,1.00,0.11,40.33
9,-0.04,1.00,0.13,40.89
9,-0.02,0.98,0.13,40.89
9,-0.05,1.04,0.12,42.24
9,-0.05,1.02,0.12,40.90
9,-0.02,0.96,0.12,41.34
9,-0.05,1.00,0.13,38.21
9,-0.05,1.04,0.11,43.10
9,-0.04,1.04,0.11,38.82
9,-0.02,0.96,0.12,38.82
9,-0.00,1.02,0.14,37.08
9,-0.07,1.02,0.18,40.72
9,-0.04,0.99,0.12,40.72
9,-0.03,0.99,0.14,39.38
9,-0.03,0.99,0.12,38.64
9,-0.04,1.04,0.12,38.78
9,-0.02,0.96,0.13,43.48
9,-0.02,0.95,0.14,42.42
9,-0.07,1.01,0.14,43.84
9,-0.04,1.02,0.11,43.84
9,-0.04,0.97,0.13,40.06
9,-0.02,0.97,0.15,39.15
9,-0.06,1.04,0.15,39.15
9,-0.04,0.97,0.13,42.11
9,-0.04,0.97,0.13,40.36
9,-0.04,0.99,0.13,40.36
9,-0.04,1.04,0.12,39.82
9,-0.04,1.02,0.14,43.93
9,-0.02,0.96,0.14,44.30
9,-0.06,1.01,0.13,49.00
9,-0.06,0.99,0.12,39.62
9,-0.03,0.99,0.12,39.77
9,-0.02,0.98,0.12,39.77
9,-0.04,1.05,0.12,41.91
9,-0.04,1.05,0.06,37.89
9,-0.02,0.96,0.13,37.89
9,-0.05,1.01,0.14,37.47
9,-0.05,1.01,0.13,36.74
9,-0.04,1.02,0.13,36.56
9,-0.00,0.96,0.13,40.47
9,-0.00,0.97,0.13,43.62
9,-0.07,1.03,0.13,41.24
9,-0.03,0.97,0.12,41.24
9,-0.03,0.98,0.14,38.51
9,-0.04,0.98,0.18,36.59
9,-0.04,1.04,0.12,36.59
9,-0.01,0.95,0.12,35.76
9,-0.01,0.95,0.13,42.58
9,-0.06,1.01,0.13,42.58
9,-0.04,1.00,0.12,35.91
9,-0.04,1.04,0.13,38.90
9,-0.01,0.97,0.13,38.56
9,-0.05,1.04,0.12,44.83
9,-0.05,0.96,0.12,42.98
9,-0.03,0.96,0.12,45.48
9,-0.05,1.00,0.13,45.48
9,-0.03,1.03,0.11,42.10
9,-0.03,1.03,0.06,43.60
9,-0.01,0.96,0.13,43.60
9,-0.06,1.03,0.14,42.06
9,-0.06,1.03,0.12,39.36
9,-0.04,0.97,0.12,39.71
9,-0.03,0.99,0.12,38.92
9,-0.03,0.99,0.13,41.60
9,-0.04,1.05,0.13,40.77
9,-0.01,0.95,0.13,40.77
9,-0.01,1.01,0.13,40.75
9,-0.06,1.01,0.18,40.11
9,-0.05,1.01,0.12,40.11
9,-0.01,0.97,0.13,41.51
9,-0.01,0.97,0.13,40.90
9,-0.05,1.04,0.13,40.90
9,-0.04,0.96,0.13,41.30
9,-0.04,1.00,0.13,41.85
9,-0.05,1.00,0.13,42.07
9,-0.04,1.02,0.12,40.51
9,-0.04,0.96,0.13,43.93
9,-0.01,0.96,0.13,43.74
9,-0.06,1.02,0.13,43.74
9,-0.04,0.99,0.12,38.97
9,-0.04,0.99,0.07,40.86
9,-0.03,0.98,0.13,40.86
9,-0.04,1.05,0.12,40.57
9,-0.04,1.02,0.13,41.56
9,-0.02,0.96,0.13,41.85
9,-0.06,1.00,0.13,38.72
9,-0.06,1.01,0.11,38.31
9,-0.04,1.01,0.11,38.24
9,-0.01,0.97,0.13,38.24
9,-0.05,1.03,0.14,36.26
9,-0.05,1.03,0.18,41.03
9,-0.04,0.97,0.11,41.03
9,-0.03,1.00,0.13,40.13
9,-0.03,1.00,0.12,38.04
9,-0.03,1.04,0.12,38.04
9,-0.02,0.96,0.13,40.93
9,-0.02,0.95,0.14,39.70
9,-0.06,1.01,0.14,43.11
9,-0.04,0.99,0.12,43.11
9,-0.04,0.98,0.13,41.32
9,-0.02,0.98,0.13,41.89
9,-0.05,1.04,0.13,41.89
10,-0.04,0.98,0.12,42.39
10,-0.05,0.97,0.12,41.65
10,-0.03,0.97,0.07,43.49
10,-0.04,1.00,0.13,43.49
10,-0.03,1.04,0.12,43.39
10,-0.03,1.04,0.12,41.51
10,-0.01,0.96,0.12,41.51
10,-0.06,1.02,0.14,41.06
10,-0.06,1.06,0.12,44.29
10,-0.04,1.00,0.12,43.83
10,-0.02,0.98,0.13,42.26
10,-0.02,1.04,0.14,36.25
10,-0.05,1.04,0.14,41.31
10,-0.02,0.96,0.13,41.31
10,-0.05,1.00,0.14,39.73
10,-0.05,1.00,0.18,40.68
10,-0.03,1.02,0.12,40.68
10,-0.01,0.97,0.12,36.24
10,-0.01,0.97,0.13,41.40
10,-0.06,1.04,0.13,41.39
10,-0.04,0.98,0.12,35.91
10,-0.04,0.99,0.12,43.12
10,-0.03,0.99,0.12,42.85
10,-0.05,1.04,0.13,42.85
10,-0.02,0.96,0.13,40.24
10,-0.02,0.96,0.14,40.11
10,-0.07,1.02,0.14,40.11
10,-0.04,1.00,0.11,39.42
10,-0.04,1.00,0.12,38.79
10,-0.02,0.98,0.12,38.79
10,-0.05,1.04,0.13,44.19
10,-0.05,1.02,0.13,42.03
10,-0.03,0.96,0.13,41.79
10,-0.04,1.00,0.13,37.88
10,-0.04,1.02,0.12,39.89
10,-0.04,1.02,0.12,43.37
10,-0.01,0.97,0.12,43.37
10,-0.00,1.02,0.14,42.03
10,-0.07,1.02,0.13,42.15
10,-0.04,0.98,0.13,42.15
10,-0.04,0.99,0.14,42.72
10,-0.04,0.99,0.12,39.11
10,-0.04,1.04,0.12,39.29
10,-0.02,0.97,0.13,41.64
10,-0.02,0.95,0.14,40.88
10,-0.07,1.01,0.14,41.98
10,-0.04,1.01,0.12,41.98
10,-0.01,0.97,0.12,39.78
10,-0.01,0.97,0.07,38.48
10,-0.05,1.04,0.14,38.48
10,-0.03,0.97,0.13,36.92
10,-0.03,0.97,0.13,39.64
10,-0.04,0.99,0.13,39.64
10,-0.04,1.03,0.13,42.01
10,-0.04,1.03,0.13,41.10
10,-0.02,0.97,0.13,40.95
10,-0.06,1.02,0.14,39.38
10,-0.06,0.99,0.12,45.02
10,-0.04,0.99,0.12,41.92
10,-0.02,0.98,0.13,41.92
10,-0.04,1.04,0.13,41.28
10,-0.04,1.04,0.19,41.13
10,-0.02,0.96,0.12,41.13
10,-0.05,1.01,0.13,36.22
10,-0.05,1.01,0.12,36.92
10,-0.04,1.03,0.12,37.33
10,-0.00,0.98,0.13,37.33
10,-0.00,1.03,0.13,43.98
10,-0.06,1.03,0.13,39.45
10,-0.03,0.98,0.13,39.45
10,-0.04,0.99,0.13,37.11
10,-0.04,0.99,0.13,46.58
10,-0.04,1.04,0.13,46.58
10,-0.01,0.96,0.13,40.94
10,-0.01,0.96,0.14,40.65
10,-0.06,1.02,0.14,40.65
10,-0.04,1.00,0.12,39.09
10,-0.04,1.04,0.12,41.62
10,-0.02,0.98,0.12,41.73
10,-0.04,1.04,0.13,44.08
10,-0.04,0.96,0.12,37.11
10,-0.02,0.96,0.12,39.66
10,-0.05,1.00,0.14,39.66
10,-0.03,1.03,0.11,38.24
10,-0.03,1.03,0.07,40.40
10,-0.01,0.96,0.13,40.40
10,-0.05,1.03,0.14,37.61
10,-0.05,1.04,0.12,40.01
10,-0.04,0.98,0.12,40.19
10,-0.03,0.99,0.12,42.54
10,-0.03,1.05,0.13,40.76
10,-0.04,1.05,0.13,40.69
10,-0.01,0.96,0.12,40.69
10,-0.06,1.01,0.13,40.66
10,-0.06,1.01,0.18,41.72
10,-0.04,1.01,0.11,41.72
10,-0.01,0.98,0.13,39.84
10,-0.01,0.98,0.14,42.34
10,-0.05,1.04,0.14,42.34
10,-0.04,0.97,0.14,39.83
10,-0.04,1.00,0.13,36.66
10,-0.04,1.00,0.13,36.38
10,-0.04,1.03,0.12,37.16
10,-0.04,0.97,0.13,36.03
10,-0.00,0.97,0.13,38.62
10,-0.06,1.03,0.15,38.62
10,-0.04,0.99,0.11,37.90
10,-0.04,0.99,0.12,40.30
10,-0.03,0.98,0.12,40.30
10,-0.03,1.04,0.12,39.01
10,-0.03,1.04,0.12,38.41
10,-0.02,0.96,0.12,38.66
10,-0.05,1.02,0.14,33.96
10,-0.05,1.02,0.11,43.91
10,-0.03,1.02,0.11,36.57
10,-0.02,0.97,0.12,36.57
10,-0.06,1.04,0.15,35.37
10,-0.06,1.04,0.19,40.30
10,-0.03,0.97,0.12,40.30
10,-0.05,1.00,0.13,39.17
10,-0.05,1.00,0.12,40.50
10,-0.03,1.04,0.12,40.50
10,-0.01,0.96,0.13,38.67
10,-0.01,0.96,0.13,38.54
10,-0.06,1.02,0.13,38.41
10,-0.04,0.99,0.11,40.76
10,-0.04,0.98,0.13,39.56
10,-0.02,0.98,0.13,45.07
10,-0.05,1.03,0.13,45.07
10,-0.03,0.96,0.13,38.05
10,-0.03,0.96,0.13,41.22
10,-0.05,1.01,0.13,41.22
10,-0.03,1.03,0.11,38.20
10,-0.03,1.03,0.12,41.17
10,-0.02,0.97,0.12,41.10
10,-0.05,1.03,0.15,38.75
10,-0.05,0.98,0.12,39.79
10,-0.04,0.98,0.12,39.02
10,-0.03,0.99,0.12,39.02
10,-0.03,1.04,0.12,43.19
10,-0.03,1.04,0.07,40.09
10,-0.02,0.96,0.13,40.09
10,-0.06,1.02,0.14,40.32
10,-0.06,1.02,0.11,39.38
10,-0.04,1.00,0.11,39.38
10,-0.02,0.98,0.13,39.48
10,-0.02,0.98,0.13,40.23
10,-0.04,1.04,0.13,40.23
10,-0.03,0.97,0.12,39.45
10,-0.03,1.00,0.14,41.69
10,-0.05,1.00,0.18,40.53
10,-0.03,1.03,0.12,40.53
10,-0.01,0.96,0.13,42.78
10,-0.01,0.96,0.15,41.14
10,-0.06,1.03,0.15,41.14
10,-0.03,0.99,0.12,41.82
10,-0.03,0.98,0.13,40.62
10,-0.03,0.98,0.13,40.08
10,-0.04,1.05,0.13,44.78
10,-0.04,0.96,0.12,44.38
10,-0.02,0.96,0.12,37.65
10,-0.06,1.01,0.13,37.65
10,-0.04,1.01,0.11,40.38
10,-0.04,1.01,0.12,39.65
10,-0.02,0.98,0.12,39.65
10,-0.05,1.03,0.13,43.58
10,-0.05,1.03,0.13,42.08
10,-0.04,0.96,0.13,41.61
10,-0.04,1.00,0.14,41.61
10,-0.04,0.97,0.12,38.64
10,-0.04,1.03,0.12,36.62
10,-0.01,0.97,0.13,36.62
10,-0.01,1.02,0.14,38.56
10,-0.05,1.02,0.13,40.22
10,-0.04,1.00,0.13,40.22
10,-0.02,0.99,0.12,39.47
10,-0.02,0.99,0.12,36.41
10,-0.05,1.04,0.12,36.41
10,-0.03,0.96,0.13,37.38
10,-0.03,0.94,0.13,44.08
10,-0.06,1.01,0.13,44.21
10,-0.04,1.02,0.13,42.65
10,-0.04,0.97,0.12,43.06
10,-0.02,0.97,0.12,37.19
10,-0.05,1.03,0.13,37.19
10,-0.03,0.96,0.13,39.25
10,-0.03,0.96,0.13,39.08
10,-0.04,0.99,0.13,39.08
10,-0.04,1.04,0.13,43.83
10,-0.04,1.04,0.14,43.29
10,-0.01,0.96,0.14,43.49
10,-0.07,1.01,0.15,37.22
10,-0.07,1.05,0.11,40.54
10,-0.04,0.99,0.11,41.50
10,-0.03,0.98,0.13,41.50
10,-0.03,1.05,0.13,43.94
10,-0.04,1.05,0.18,39.21
10,-0.02,0.96,0.12,39.21
10,-0.05,1.00,0.12,42.21
10,-0.05,1.00,0.13,37.60
10,-0.04,1.02,0.13,37.60
10,-0.02,0.96,0.12,39.95
10,-0.02,0.96,0.14,37.48
10,-0.05,1.03,0.14,36.76
10,-0.04,0.98,0.12,39.89
11,-0.01,0.98,0.13,38.76
11,-0.04,1.04,0.14,38.76
11,-0.04,0.97,0.13,45.77
11,-0.04,0.97,0.13,40.73
11,-0.05,0.99,0.13,40.73
11,-0.04,1.03,0.12,37.15
11,-0.04,1.03,0.12,45.09
11,-0.02,0.96,0.12,45.02
11,-0.05,1.02,0.14,42.67
11,-0.05,0.98,0.12,38.29
11,-0.04,0.98,0.12,43.40
11,-0.03,0.98,0.13,43.40
11,-0.04,1.05,0.14,39.76
11,-0.04,1.05,0.13,40.48
11,-0.02,0.96,0.13,40.48
11,-0.05,1.01,0.13,44.06
11,-0.05,1.01,0.11,45.06
11,-0.04,1.01,0.11,45.06
11,-0.02,0.97,0.13,42.21
11,-0.02,0.97,0.13,40.92
11,-0.05,1.03,0.13,45.96
11,-0.03,0.96,0.13,45.96
11,-0.03,0.99,0.14,41.20
11,-0.04,0.99,0.13,40.82
11,-0.03,1.03,0.13,40.82
11,-0.02,0.97,0.13,42.22
11,-0.02,0.97,0.13,36.51
11,-0.06,1.02,0.13,36.51
11,-0.04,1.00,0.12,40.39
11,-0.04,0.98,0.13,38.05
11,-0.02,0.98,0.13,37.81
11,-0.04,1.04,0.14,41.72
11,-0.04,0.96,0.13,45.78
11,-0.02,0.96,0.13,41.38
11,-0.06,1.00,0.13,41.38
11,-0.10,1.02,0.12,42.32
11,-0.04,1.02,0.12,43.27
11,-0.02,0.97,0.12,43.27
11,-0.05,1.02,0.14,47.79
11,-0.05,1.02,0.13,38.22
11,-0.03,0.98,0.13,38.09
11,-0.04,0.99,0.12,40.44
11,-0.04,0.97,0.13,38.33
11,-0.04,1.03,0.13,45.68
11,-0.02,0.96,0.13,45.68
11,-0.02,1.01,0.14,42.41
11,-0.06,1.01,0.18,39.16
11,-0.04,1.00,0.12,39.16
11,-0.02,0.99,0.12,40.03
11,-0.02,0.99,0.13,41.04
11,-0.04,1.03,0.13,41.04
11,-0.03,0.97,0.12,41.64
11,-0.03,1.00,0.13,42.19
11,-0.04,1.00,0.13,41.92
11,-0.04,1.02,0.12,47.40
11,-0.04,0.97,0.13,44.58
11,-0.01,0.97,0.13,39.08
11,-0.05,1.03,0.14,39.08
11,-0.03,0.98,0.13,47.47
11,-0.03,0.98,0.13,42.95
11,-0.03,0.99,0.13,42.95
11,-0.04,1.04,0.13,39.76
11,-0.04,1.04,0.13,42.62
11,-0.03,0.95,0.13,42.24
11,-0.06,1.01,0.13,40.68
11,-0.06,1.01,0.11,42.86
11,-0.04,1.01,0.11,40.89
11,-0.01,0.98,0.13,40.89
11,-0.01,1.03,0.14,44.85
11,-0.06,1.03,0.13,40.08
11,-0.03,0.97,0.13,40.08
11,-0.05,0.99,0.13,37.81
11,-0.05,0.99,0.13,41.59
11,-0.04,1.03,0.13,41.59
11,-0.01,0.97,0.11,39.76
11,-0.01,0.96,0.14,38.27
11,-0.06,1.02,0.14,37.78
11,-0.04,0.99,0.12,40.91
11,-0.04,0.98,0.13,43.01
11,-0.03,0.98,0.13,39.27
11,-0.04,1.03,0.13,39.27
11,-0.02,0.96,0.12,37.16
11,-0.02,0.96,0.06,45.86
11,-0.05,1.01,0.13,45.86
11,-0.03,1.01,0.12,41.93
11,-0.03,1.01,0.13,42.08
11,-0.02,0.97,0.13,42.02
11,-0.05,1.03,0.13,37.32
11,-0.05,1.05,0.12,38.96
11,-0.03,0.98,0.12,42.49
11,-0.04,0.99,0.12,42.49
11,-0.04,1.04,0.12,38.23
11,-0.03,1.04,0.07,38.94
11,-0.02,0.96,0.13,38.94
11,-0.06,1.02,0.14,40.54
11,-0.06,1.02,0.12,41.67
11,-0.04,1.00,0.12,41.67
11,-0.02,0.98,0.13,45.02
11,-0.02,0.98,0.13,41.07
11,-0.04,1.04,0.13,41.41
11,-0.03,0.96,0.13,46.89
11,-0.03,1.00,0.13,39.42
11,-0.05,1.00,0.13,40.97
11,-0.03,1.02,0.12,40.97
11,-0.02,0.97,0.12,41.47
11,-0.02,0.97,0.07,41.89
11,-0.06,1.03,0.13,41.89
11,-0.03,0.98,0.12,41.85
11,-0.03,0.98,0.13,39.99
11,-0.03,0.99,0.13,40.34
11,-0.04,1.03,0.13,45.04
11,-0.04,1.03,0.12,37.78
11,-0.02,0.97,0.12,39.93
11,-0.05,1.01,0.13,39.93
11,-0.05,1.00,0.12,42.77
11,-0.04,1.00,0.12,39.81
11,-0.02,0.98,0.12,39.81
11,-0.05,1.03,0.12,45.10
11,-0.05,1.03,0.12,42.64
11,-0.03,0.97,0.12,42.64
11,-0.04,1.00,0.13,37.47
11,-0.04,0.97,0.12,36.78
11,-0.04,1.03,0.12,37.11
11,-0.01,0.96,0.12,40.24
11,-0.01,1.03,0.14,39.89
11,-0.06,1.03,0.14,45.37
11,-0.03,1.00,0.11,45.37
11,-0.03,0.99,0.13,44.06
11,-0.03,0.99,0.19,35.69
11,-0.05,1.03,0.12,35.69
11,-0.03,0.97,0.13,41.00
11,-0.03,0.97,0.13,46.32
11,-0.06,1.00,0.13,46.73
11,-0.03,1.01,0.12,38.90
11,-0.03,1.04,0.13,37.92
11,-0.01,0.97,0.13,42.92
11,-0.05,1.02,0.15,42.92
11,-0.05,0.97,0.13,45.73
11,-0.03,0.97,0.13,41.73
11,-0.04,0.99,0.13,41.73
11,-0.04,1.04,0.13,40.88
11,-0.04,1.04,0.13,39.54
11,-0.02,0.97,0.13,39.54
11,-0.07,1.01,0.14,42.12
11,-0.07,1.00,0.12,39.99
11,-0.04,1.00,0.12,40.66
11,-0.02,0.99,0.13,37.53
11,-0.02,1.03,0.14,40.77
11,-0.05,1.03,0.14,42.29
11,-0.02,0.96,0.13,42.29
11,-0.05,1.00,0.13,39.69
11,-0.05,1.00,0.18,47.52
11,-0.04,1.02,0.12,47.52
11,-0.01,0.98,0.12,38.75
11,-0.01,0.98,0.13,40.21
11,-0.04,1.02,0.13,40.57
11,-0.03,0.97,0.12,43.70
11,-0.03,0.99,0.12,37.14
11,-0.03,0.99,0.12,45.09
11,-0.04,1.03,0.13,45.09
11,-0.04,0.97,0.12,44.54
11,-0.02,0.97,0.09,43.85
11,-0.06,1.01,0.15,43.85
11,-0.04,0.99,0.13,42.20
11,-0.04,0.99,0.12,38.51
11,-0.02,0.98,0.12,38.51
11,-0.05,1.03,0.14,38.54
11,-0.05,1.03,0.12,40.38
11,-0.03,0.97,0.12,40.35
11,-0.04,1.00,0.13,40.35
11,-0.04,1.02,0.13,43.61
11,-0.04,1.02,0.13,39.79
11,-0.01,0.98,0.12,39.79
11,-0.06,1.02,0.14,40.08
11,-0.06,1.02,0.18,37.29
11,-0.04,0.98,0.12,37.29
11,-0.03,0.99,0.13,37.16
11,-0.03,0.99,0.14,40.38
11,-0.04,1.04,0.14,39.95
11,-0.03,0.96,0.13,47.00
11,-0.03,0.95,0.14,37.90
11,-0.06,1.02,0.14,40.94
11,-0.03,1.01,0.12,40.94
11,-0.03,0.97,0.13,43.57
11,-0.02,0.97,0.13,44.61
11,-0.05,1.04,0.13,44.61
11,-0.03,0.97,0.12,37.70
11,-0.03,0.97,0.13,37.62
11,-0.04,1.00,0.13,37.62
11,-0.04,1.03,0.12,40.43
11,-0.04,1.03,0.12,36.70
11,-0.01,0.97,0.12,36.62
11,-0.06,1.02,0.13,42.89
11,-0.06,1.00,0.12,42.66
11,-0.04,1.00,0.12,40.13
11,-0.03,0.99,0.12,40.13
11,-0.04,1.04,0.12,41.47
11,-0.04,1.04,0.08,37.19
11,-0.02,0.97,0.14,37.19
11,-0.05,1.01,0.13,40.29
11,-0.05,1.01,0.11,45.08
11,-0.03,1.01,0.11,44.82
11,-0.02,0.98,0.13,44.04
11,-0.02,1.03,0.13,43.52
11,-0.05,1.03,0.13,39.53
11,-0.03,0.97,0.13,39.53
11,-0.04,0.99,0.13,40.27
11,-0.04,0.99,0.13,40.19
11,-0.04,1.03,0.13,40.19
11,-0.02,0.96,0.14,43.17
11,-0.02,0.96,0.13,40.47
11,-0.06,1.01,0.13,40.47
11,-0.03,1.00,0.11,37.20
11,-0.03,1.05,0.12,37.21
11,-0.02,0.98,0.12,36.87
11,-0.05,1.03,0.13,36.08
11,-0.05,0.96,0.12,41.41
11,-0.04,0.96,0.12,41.99
11,-0.05,1.00,0.13,41.99
11,-0.04,1.02,0.12,40.16
11,-0.04,1.02,0.06,35.94
11,-0.02,0.97,0.13,35.94
11,-0.05,1.03,0.14,37.48
11,-0.05,1.04,0.12,36.49
11,-0.04,0.98,0.12,36.72
11,-0.04,0.99,0.13,39.07
11,-0.04,1.03,0.13,38.29
11,-0.04,1.03,0.13,41.01
11,-0.02,0.97,0.13,41.01
11,-0.05,1.01,0.13,44.12
11,-0.05,1.01,0.18,44.23
11,-0.03,1.01,0.11,44.23
11,-0.02,0.98,0.13,38.78
12,-0.06,1.02,0.14,40.28
12,-0.03,0.99,0.12,38.02
12,-0.03,0.99,0.13,40.44
12,-0.03,0.99,0.13,40.33
12,-0.04,1.04,0.13,42.68
12,-0.04,0.96,0.13,40.57
12,-0.02,0.96,0.13,45.65
12,-0.05,1.01,0.13,45.65
12,-0.04,1.02,0.11,44.93
12,-0.04,1.02,0.12,46.92
12,-0.02,0.98,0.12,46.92
12,-0.05,1.03,0.12,44.98
12,-0.05,1.03,0.12,42.68
12,-0.04,0.97,0.12,42.68
12,-0.04,0.99,0.14,39.25
12,-0.04,0.97,0.12,41.41
12,-0.04,1.03,0.12,44.37
12,-0.02,0.97,0.13,44.37
12,-0.02,1.02,0.14,37.07
12,-0.06,1.02,0.19,39.31
12,-0.04,1.00,0.12,39.31
12,-0.03,0.98,0.13,42.80
12,-0.03,0.98,0.13,41.37
12,-0.04,1.04,0.13,41.37
12,-0.02,0.97,0.12,40.30
12,-0.02,0.94,0.14,41.14
12,-0.05,1.00,0.14,41.41
12,-0.03,1.02,0.12,43.76
12,-0.03,0.98,0.12,39.68
12,-0.01,0.98,0.12,44.06
12,-0.05,1.03,0.13,44.06
12,-0.03,0.98,0.12,38.43
12,-0.03,0.98,0.07,41.24
12,-0.03,0.99,0.13,41.24
12,-0.04,1.03,0.13,40.07
12,-0.04,1.03,0.13,42.48
12,-0.02,0.97,0.13,42.48
12,-0.06,1.01,0.14,39.42
12,-0.06,1.01,0.12,40.37
12,-0.04,1.01,0.12,40.41
12,-0.02,0.98,0.13,38.84
12,-0.02,1.03,0.14,44.18
12,-0.05,1.03,0.13,43.42
12,-0.03,0.97,0.13,43.42
12,-0.05,1.00,0.14,41.20
12,-0.05,1.00,0.13,39.59
12,-0.04,1.02,0.13,39.59
12,-0.02,0.97,0.13,44.30
12,-0.02,0.96,0.14,42.03
12,-0.05,1.03,0.14,41.89
12,-0.04,0.98,0.13,45.81
12,-0.04,0.99,0.13,43.72
12,-0.03,0.99,0.13,41.04
12,-0.04,1.04,0.13,41.04
12,-0.02,0.96,0.12,39.41
12,-0.02,0.96,0.07,42.41
12,-0.05,1.02,0.13,42.41
12,-0.04,1.01,0.11,40.71
12,-0.04,1.01,0.12,46.30
12,-0.02,0.98,0.12,46.30
12,-0.05,1.03,0.13,39.44
12,-0.05,1.04,0.12,46.15
12,-0.03,0.97,0.12,39.31
12,-0.05,0.99,0.13,39.31
12,-0.05,1.03,0.12,42.38
12,-0.04,1.03,0.06,39.82
12,-0.02,0.96,0.13,39.82
12,-0.06,1.02,0.14,43.80
12,-0.06,1.02,0.12,40.07
12,-0.04,1.00,0.12,40.07
12,-0.02,0.99,0.13,41.74
12,-0.02,0.98,0.12,41.85
12,-0.04,1.04,0.12,41.76
12,-0.02,0.96,0.14,41.76
12,-0.02,1.01,0.12,42.58
12,-0.05,1.01,0.12,40.61
12,-0.04,1.02,0.12,40.61
12,-0.02,0.97,0.13,42.13
12,-0.02,0.97,0.13,39.63
12,-0.05,1.03,0.13,39.63
12,-0.03,0.98,0.12,43.81
12,-0.03,0.98,0.13,40.81
12,-0.04,0.99,0.13,40.81
12,-0.04,1.04,0.13,40.54
12,-0.04,1.03,0.12,45.08
12,-0.02,0.96,0.12,37.41
12,-0.05,1.01,0.14,37.41
12,-0.05,1.00,0.12,42.05
12,-0.04,1.00,0.07,40.51
12,-0.02,0.99,0.13,40.51
12,-0.04,1.04,0.12,37.63
12,-0.04,1.04,0.13,42.65
12,-0.03,0.97,0.13,42.65
12,-0.05,1.00,0.13,41.65
12,-0.05,1.02,0.13,45.90
12,-0.04,1.02,0.13,45.43
12,-0.02,0.97,0.13,39.95
12,-0.02,1.02,0.13,43.58
12,-0.05,1.02,0.13,42.91
12,-0.03,0.98,0.12,42.91
12,-0.03,0.99,0.12,43.85
12,-0.03,0.99,0.07,40.28
12,-0.05,1.04,0.13,40.28
12,-0.02,0.96,0.12,43.60
12,-0.02,0.96,0.14,38.12
12,-0.06,1.01,0.14,37.67
12,-0.04,1.00,0.12,42.37
12,-0.04,1.05,0.12,42.96
12,-0.03,0.98,0.12,39.44
12,-0.06,1.04,0.13,39.44
12,-0.06,0.97,0.13,39.77
12,-0.03,0.97,0.19,35.31
12,-0.04,1.00,0.12,35.31
12,-0.04,1.02,0.13,40.48
12,-0.04,1.02,0.12,35.62
12,-0.02,0.97,0.12,35.62
12,-0.06,1.02,0.14,41.98
12,-0.06,1.05,0.12,43.26
12,-0.04,0.99,0.12,43.53
12,-0.03,0.99,0.12,45.10
12,-0.03,1.04,0.13,41.77
12,-0.04,1.04,0.13,39.69
12,-0.03,0.97,0.12,39.69
12,-0.06,1.01,0.14,39.24
12,-0.06,1.01,0.18,41.33
12,-0.03,1.01,0.12,41.33
12,-0.02,0.98,0.12,44.53
12,-0.02,0.98,0.13,42.82
12,-0.05,1.02,0.13,42.60
12,-0.03,0.97,0.12,42.60
12,-0.03,1.00,0.13,43.17
12,-0.04,1.00,0.13,35.68
12,-0.04,1.03,0.12,35.68
12,-0.04,0.98,0.13,45.40
12,-0.03,0.98,0.13,43.67
12,-0.05,1.02,0.13,43.67
12,-0.04,1.00,0.12,42.62
12,-0.04,1.00,0.13,42.02
12,-0.03,0.98,0.13,42.02
12,-0.04,1.04,0.12,41.14
12,-0.04,1.03,0.12,41.49
12,-0.02,0.97,0.12,42.03
12,-0.04,1.01,0.13,38.90
12,-0.04,1.02,0.12,39.84
12,-0.04,1.02,0.12,40.04
12,-0.01,0.97,0.13,40.04
12,-0.06,1.03,0.14,42.48
12,-0.06,1.03,0.19,44.24
12,-0.03,0.98,0.12,44.24
12,-0.03,0.99,0.14,45.32
12,-0.03,0.99,0.13,39.05
12,-0.04,1.03,0.13,38.39
12,-0.02,0.97,0.12,41.52
12,-0.02,0.96,0.13,41.92
12,-0.05,1.02,0.13,41.51
12,-0.03,1.00,0.12,41.51
12,-0.03,0.98,0.13,42.87
12,-0.02,0.98,0.13,38.06
12,-0.05,1.04,0.13,38.06
12,-0.03,0.98,0.12,38.01
12,-0.03,0.98,0.12,38.05
12,-0.05,1.00,0.12,38.05
12,-0.04,1.02,0.13,38.87
12,-0.04,1.03,0.12,43.38
12,-0.02,0.97,0.12,43.54
12,-0.06,1.03,0.13,43.54
12,-0.06,0.99,0.11,46.57
12,-0.04,0.99,0.11,45.15
12,-0.03,0.99,0.14,45.15
12,-0.04,1.03,0.13,46.18
12,-0.04,1.03,0.13,42.03
12,-0.02,0.97,0.13,42.03
12,-0.06,1.01,0.13,39.35
12,-0.06,1.01,0.12,42.77
12,-0.04,1.01,0.12,42.79
12,-0.01,0.99,0.13,44.36
12,-0.01,1.03,0.14,42.71
12,-0.05,1.03,0.14,42.01
12,-0.04,0.97,0.13,42.01
12,-0.04,0.99,0.13,44.64
12,-0.04,0.99,0.13,42.16
12,-0.04,1.03,0.13,42.16
12,-0.02,0.98,0.13,42.24
12,-0.02,0.98,0.13,38.64
12,-0.06,1.01,0.13,38.64
12,-0.04,0.99,0.12,39.62
12,-0.04,0.98,0.13,41.71
12,-0.03,0.98,0.13,41.70
12,-0.05,1.03,0.13,41.70
12,-0.05,0.97,0.13,42.41
12,-0.02,0.97,0.13,39.88
12,-0.05,1.00,0.13,39.88
12,-0.03,1.02,0.13,39.94
12,-0.03,1.02,0.13,41.37
12,-0.02,0.98,0.13,41.37
12,-0.05,1.03,0.14,45.05
12,-0.05,1.03,0.12,41.36
12,-0.03,0.98,0.12,41.16
12,-0.03,1.00,0.13,40.38
12,-0.03,0.96,0.12,44.70
12,-0.04,1.03,0.12,40.40
12,-0.02,0.97,0.13,40.40
12,-0.05,1.01,0.13,36.77
12,-0.05,1.01,0.18,42.53
12,-0.04,1.00,0.12,42.53
12,-0.02,0.99,0.12,47.98
12,-0.02,0.99,0.13,37.90
12,-0.05,1.03,0.13,37.90
12,-0.03,0.98,0.13,40.47
12,-0.03,1.00,0.13,41.97
12,-0.04,1.00,0.13,41.67
12,-0.05,1.02,0.13,41.67
12,-0.05,0.96,0.13,36.57
12,-0.01,0.96,0.13,44.56
12,-0.06,1.02,0.14,44.56
12,-0.03,0.98,0.12,39.61
12,-0.03,0.98,0.06,39.63
12,-0.03,0.98,0.13,39.63
12,-0.04,1.03,0.13,41.68
12,-0.04,1.03,0.13,40.41
12,-0.02,0.97,0.13,39.94
12,-0.06,1.01,0.14,34.46
12,-0.06,1.01,0.12,42.61
12,-0.03,1.01,0.12,38.71
12,-0.02,0.98,0.12,38.71
12,-0.04,1.03,0.13,40.96
12,-0.04,1.03,0.13,41.43
12,-0.03,0.97,0.13,41.43
12,-0.05,0.99,0.13,41.91
12,-0.05,0.99,0.12,42.08
12,-0.03,1.02,0.12,42.08
12,-0.02,0.97,0.13,39.59
12,-0.02,0.96,0.14,40.28
13,-0.04,1.02,0.13,40.00
13,-0.04,0.97,0.12,37.92
13,-0.02,0.97,0.12,38.65
13,-0.06,1.03,0.12,38.65
13,-0.03,0.99,0.12,39.76
13,-0.03,0.99,0.08,38.84
13,-0.04,0.99,0.14,38.84
13,-0.04,1.03,0.12,45.25
13,-0.04,1.03,0.13,41.39
13,-0.02,0.98,0.13,41.39
13,-0.06,1.01,0.14,42.29
13,-0.06,1.05,0.12,42.37
13,-0.04,0.99,0.12,45.15
13,-0.03,0.98,0.13,45.15
13,-0.03,1.03,0.12,40.12
13,-0.05,1.03,0.06,45.72
13,-0.02,0.96,0.13,45.72
13,-0.05,0.99,0.13,42.82
13,-0.05,0.99,0.12,42.00
13,-0.04,1.02,0.12,42.00
13,-0.02,0.97,0.13,41.02
13,-0.02,0.96,0.14,43.27
13,-0.05,1.02,0.14,43.50
13,-0.04,0.98,0.11,43.50
13,-0.04,0.99,0.12,47.39
13,-0.04,0.99,0.12,37.91
13,-0.03,1.03,0.12,37.91
13,-0.02,0.98,0.13,39.62
13,-0.02,0.98,0.13,45.12
13,-0.06,1.01,0.13,45.12
13,-0.03,1.01,0.13,41.25
13,-0.03,1.01,0.13,43.47
13,-0.01,0.99,0.13,43.50
13,-0.05,1.03,0.12,42.71
13,-0.05,1.03,0.12,42.44
13,-0.02,0.97,0.12,47.66
13,-0.05,1.00,0.12,47.66
13,-0.05,1.02,0.12,43.20
13,-0.03,1.02,0.06,38.45
13,-0.02,0.97,0.13,38.45
13,-0.06,1.02,0.13,44.10
13,-0.06,1.02,0.12,48.61
13,-0.04,0.99,0.12,48.61
13,-0.03,0.99,0.13,40.20
13,-0.03,0.97,0.13,38.57
13,-0.04,1.03,0.13,38.97
13,-0.03,0.97,0.12,42.10
13,-0.03,1.00,0.13,43.51
13,-0.06,1.00,0.13,37.95
13,-0.03,1.00,0.12,37.95
13,-0.02,0.98,0.12,41.68
13,-0.02,0.98,0.06,44.43
13,-0.05,1.02,0.13,44.43
13,-0.03,0.98,0.13,37.20
13,-0.03,0.98,0.14,38.82
13,-0.05,0.99,0.14,38.73
13,-0.05,1.03,0.13,44.21
13,-0.05,1.03,0.12,41.37
13,-0.02,0.96,0.12,38.45
13,-0.05,1.01,0.13,38.45
13,-0.05,0.99,0.12,39.59
13,-0.04,0.99,0.06,42.47
13,-0.02,0.99,0.13,42.47
13,-0.04,1.04,0.12,39.12
13,-0.04,1.04,0.13,41.23
13,-0.02,0.97,0.13,41.23
13,-0.07,1.01,0.13,39.35
13,-0.07,1.02,0.13,37.38
13,-0.04,1.02,0.13,37.46
13,-0.02,0.98,0.13,40.60
13,-0.02,1.02,0.14,42.12
13,-0.05,1.02,0.14,38.46
13,-0.03,0.98,0.12,38.46
13,-0.04,0.99,0.14,38.64
13,-0.04,0.99,0.18,41.55
13,-0.04,1.03,0.12,41.55
13,-0.02,0.96,0.12,46.52
13,-0.02,0.96,0.14,41.74
13,-0.05,1.01,0.14,41.76
13,-0.04,1.00,0.12,41.76
13,-0.04,0.98,0.12,46.95
13,-0.02,0.98,0.12,42.62
13,-0.05,1.03,0.12,42.62
13,-0.05,0.97,0.12,37.64
13,-0.03,0.97,0.07,41.62
13,-0.05,1.00,0.13,41.62
13,-0.04,1.03,0.12,45.04
13,-0.04,1.03,0.13,37.50
13,-0.02,0.97,0.13,37.50
13,-0.06,1.02,0.14,41.87
13,-0.06,1.04,0.12,37.52
13,-0.03,0.98,0.12,37.50
13,-0.03,0.99,0.14,42.20
13,-0.03,1.03,0.13,41.69
13,-0.05,1.03,0.13,41.07
13,-0.02,0.97,0.12,41.07
13,-0.06,1.01,0.12,40.81
13,-0.06,1.01,0.12,38.88
13,-0.04,1.01,0.12,38.88
13,-0.02,0.98,0.13,38.13
13,-0.02,0.98,0.13,38.48
13,-0.05,1.03,0.13,38.44
13,-0.03,0.98,0.12,44.71
13,-0.03,0.99,0.13,44.80
13,-0.05,0.99,0.13,39.79
13,-0.03,1.03,0.13,39.79
13,-0.03,0.97,0.13,38.40
13,-0.02,0.97,0.13,40.88
13,-0.06,1.02,0.13,40.88
13,-0.04,0.99,0.12,41.92
13,-0.04,0.99,0.13,46.33
13,-0.02,0.99,0.13,46.33
13,-0.05,1.03,0.12,40.46
13,-0.05,1.04,0.12,40.39
13,-0.02,0.97,0.12,40.29
13,-0.05,1.01,0.14,43.42
13,-0.05,1.01,0.13,41.43
13,-0.04,1.01,0.13,42.28
13,-0.03,0.98,0.13,42.28
13,-0.05,1.03,0.13,40.21
13,-0.05,1.03,0.18,43.84
13,-0.04,0.97,0.12,43.84
13,-0.04,1.00,0.13,38.63
13,-0.04,1.00,0.12,40.42
13,-0.04,1.03,0.12,40.37
13,-0.02,0.97,0.13,45.86
13,-0.02,1.01,0.14,41.78
13,-0.06,1.01,0.14,40.19
13,-0.04,0.99,0.13,40.19
13,-0.02,0.98,0.13,40.23
13,-0.02,0.98,0.13,42.48
13,-0.04,1.03,0.13,42.48
13,-0.02,0.97,0.13,41.17
13,-0.02,0.97,0.12,39.32
13,-0.05,1.01,0.12,39.32
13,-0.04,1.02,0.12,42.66
13,-0.04,1.05,0.12,45.77
13,-0.02,0.98,0.12,46.15
13,-0.05,1.02,0.14,43.01
13,-0.05,0.98,0.12,40.40
13,-0.03,0.98,0.12,40.34
13,-0.04,0.99,0.12,40.34
13,-0.04,1.03,0.13,41.27
13,-0.04,1.03,0.13,40.69
13,-0.03,0.97,0.13,40.69
13,-0.05,1.01,0.13,42.81
13,-0.05,1.01,0.13,40.27
13,-0.03,1.00,0.13,39.93
13,-0.03,0.98,0.13,38.36
13,-0.03,1.03,0.14,42.05
13,-0.05,1.03,0.14,44.46
13,-0.04,0.98,0.13,44.46
13,-0.04,0.99,0.14,45.80
13,-0.04,0.99,0.18,41.26
13,-0.04,1.02,0.12,41.26
13,-0.02,0.97,0.13,46.21
13,-0.02,0.97,0.13,38.07
13,-0.05,1.02,0.13,38.07
13,-0.04,0.98,0.12,36.72
13,-0.04,0.98,0.13,39.59
13,-0.03,0.98,0.13,39.58
13,-0.04,1.03,0.12,40.37
13,-0.04,0.97,0.12,38.26
13,-0.02,0.97,0.12,35.29
13,-0.05,1.00,0.13,35.29
13,-0.04,1.01,0.11,39.26
13,-0.04,1.01,0.13,40.33
13,-0.02,0.97,0.13,40.33
13,-0.05,1.03,0.13,40.09
13,-0.05,1.04,0.13,43.46
13,-0.03,0.98,0.13,43.56
13,-0.04,1.00,0.13,43.56
13,-0.04,1.02,0.11,35.70
13,-0.03,1.02,0.11,36.58
13,-0.03,0.98,0.12,36.58
13,-0.05,1.02,0.13,44.74
13,-0.05,1.02,0.19,45.60
13,-0.03,0.99,0.12,45.60
13,-0.02,0.99,0.13,42.97
13,-0.02,0.99,0.13,37.46
13,-0.04,1.04,0.13,36.99
13,-0.03,0.97,0.12,40.12
13,-0.03,0.94,0.13,39.57
13,-0.05,1.00,0.13,41.44
13,-0.04,1.02,0.12,41.44
13,-0.04,0.98,0.13,42.29
13,-0.02,0.98,0.14,42.34
13,-0.06,1.03,0.14,42.34
13,-0.03,0.98,0.12,37.74
13,-0.03,0.98,0.13,36.78
13,-0.04,0.98,0.13,36.78
13,-0.04,1.03,0.12,38.37
13,-0.04,1.03,0.13,43.45
13,-0.02,0.96,0.13,43.59
13,-0.05,1.02,0.14,43.59
13,-0.05,1.00,0.13,42.42
13,-0.03,1.00,0.13,41.36
13,-0.02,0.98,0.12,41.36
13,-0.05,1.03,0.13,45.10
13,-0.05,1.03,0.18,41.46
13,-0.03,0.98,0.12,41.46
13,-0.05,1.00,0.13,43.28
13,-0.05,1.00,0.12,38.94
13,-0.04,1.02,0.12,38.85
13,-0.01,0.98,0.12,42.76
13,-0.01,0.96,0.14,39.46
13,-0.05,1.02,0.14,40.99
13,-0.03,0.99,0.12,40.99
13,-0.03,0.99,0.13,39.64
13,-0.04,0.99,0.18,41.00
13,-0.04,1.03,0.12,41.00
13,-0.03,0.97,0.12,39.85
13,-0.03,0.97,0.14,40.61
13,-0.05,1.01,0.14,40.61
13,-0.04,1.00,0.11,40.45
13,-0.04,1.04,0.13,40.47
13,-0.02,0.98,0.13,40.53
13,-0.05,1.03,0.14,38.96
13,-0.05,0.98,0.13,37.21
13,-0.03,0.98,0.13,43.74
13,-0.04,1.00,0.14,43.74
13,-0.04,1.02,0.12,48.10
13,-0.04,1.02,0.08,38.69
13,-0.02,0.97,0.14,38.69
13,-0.04,1.02,0.13,42.32
13,-0.04,1.02,0.11,37.62
13,-0.03,0.99,0.11,38.04
13,-0.03,0.99,0.13,37.26
13,-0.03,0.97,0.13,43.99
13,-0.04,1.03,0.13,41.97
13,-0.02,0.98,0.12,41.97
13,-0.02,1.00,0.13,39.62
13,-0.05,1.00,0.13,41.21
14,-0.02,0.97,0.13,38.29
14,-0.02,0.97,0.13,37.54
14,-0.05,1.01,0.13,37.54
14,-0.03,1.01,0.12,46.32
14,-0.03,1.01,0.13,37.54
14,-0.03,0.98,0.13,38.02
14,-0.04,1.03,0.13,41.94
14,-0.04,0.98,0.13,42.62
14,-0.03,0.98,0.13,36.81
14,-0.05,1.00,0.13,36.81
14,-0.03,1.02,0.12,42.39
14,-0.03,1.02,0.12,39.54
14,-0.01,0.97,0.12,39.54
14,-0.05,1.01,0.14,42.59
14,-0.05,1.01,0.13,42.22
14,-0.03,0.98,0.13,42.22
14,-0.03,0.99,0.13,38.09
14,-0.03,0.96,0.12,36.73
14,-0.04,1.03,0.12,36.48
14,-0.02,0.97,0.14,39.61
14,-0.02,1.01,0.13,38.86
14,-0.06,1.01,0.13,35.99
14,-0.04,1.00,0.12,35.99
14,-0.03,0.98,0.12,38.47
14,-0.03,0.98,0.13,43.09
14,-0.05,1.03,0.13,43.09
14,-0.03,0.97,0.12,41.58
14,-0.03,1.00,0.13,37.46
14,-0.05,1.00,0.13,37.25
14,-0.04,1.02,0.12,41.95
14,-0.04,0.98,0.12,42.30
14,-0.02,0.98,0.12,41.23
14,-0.05,1.01,0.14,41.23
14,-0.04,0.98,0.12,44.94
14,-0.04,0.98,0.07,41.84
14,-0.04,0.99,0.13,41.84
14,-0.04,1.03,0.13,44.71
14,-0.04,1.03,0.12,40.88
14,-0.03,0.97,0.12,40.88
14,-0.05,1.00,0.14,43.40
14,-0.05,1.01,0.12,40.59
14,-0.03,1.01,0.12,39.90
14,-0.03,0.98,0.13,39.12
14,-0.03,1.02,0.13,40.90
14,-0.04,1.02,0.13,40.63
14,-0.04,0.97,0.12,40.63
14,-0.04,1.00,0.13,41.71
14,-0.04,1.00,0.13,38.47
14,-0.04,1.02,0.13,38.47
14,-0.02,0.97,0.12,37.37
14,-0.02,0.95,0.13,40.09
14,-0.05,1.01,0.13,40.43
14,-0.03,0.99,0.12,38.87
14,-0.03,0.99,0.14,45.62
14,-0.03,0.99,0.14,39.87
14,-0.05,1.03,0.13,39.87
14,-0.03,0.97,0.13,39.10
14,-0.03,0.97,0.14,41.14
14,-0.05,1.01,0.14,41.14
14,-0.04,1.02,0.12,44.72
14,-0.04,1.02,0.12,42.19
14,-0.01,0.98,0.12,42.00
14,-0.05,1.02,0.13,34.94
14,-0.05,1.04,0.11,37.67
14,-0.04,0.98,0.11,37.48
14,-0.05,0.99,0.13,37.48
14,-0.05,1.03,0.12,38.21
14,-0.04,1.03,0.07,39.10
14,-0.02,0.98,0.13,39.10
14,-0.05,1.01,0.14,41.23
14,-0.05,1.01,0.12,42.95
14,-0.04,1.00,0.12,42.95
14,-0.03,0.98,0.12,39.18
14,-0.03,0.97,0.13,45.06
14,-0.04,1.03,0.13,45.33
14,-0.02,0.97,0.11,46.90
14,-0.02,1.00,0.12,45.20
14,-0.05,1.00,0.12,38.60
14,-0.04,1.02,0.13,38.60
14,-0.02,0.97,0.13,42.29
14,-0.02,0.97,0.13,42.00
14,-0.05,1.03,0.13,42.00
14,-0.04,0.98,0.12,42.21
14,-0.04,0.98,0.13,43.08
14,-0.03,0.99,0.13,43.62
14,-0.03,1.03,0.12,38.92
14,-0.03,1.03,0.12,41.65
14,-0.02,0.97,0.12,41.11
14,-0.05,1.01,0.13,41.11
14,-0.05,1.01,0.12,42.21
14,-0.03,1.01,0.12,42.85
14,-0.03,0.98,0.12,42.85
14,-0.04,1.03,0.13,41.35
14,-0.04,1.03,0.13,37.84
14,-0.03,0.98,0.13,37.84
14,-0.04,1.00,0.13,36.98
14,-0.04,1.02,0.12,45.27
14,-0.03,1.02,0.12,45.24
14,-0.02,0.97,0.12,43.67
14,-0.02,1.02,0.13,40.60
14,-0.05,1.02,0.13,38.57
14,-0.04,0.99,0.12,38.57
14,-0.04,0.99,0.13,44.75
14,-0.04,0.99,0.13,37.69
14,-0.05,1.04,0.13,37.69
14,-0.04,0.96,0.13,37.91
14,-0.04,0.96,0.13,39.37
14,-0.05,1.00,0.13,39.11
14,-0.04,1.01,0.12,41.46
14,-0.04,1.04,0.13,42.90
14,-0.02,0.98,0.13,47.87
14,-0.04,1.02,0.13,47.87
14,-0.04,0.98,0.13,44.84
14,-0.04,0.98,0.13,43.85
14,-0.04,0.99,0.13,43.85
14,-0.04,1.03,0.12,41.68
14,-0.04,1.03,0.13,38.06
14,-0.02,0.97,0.13,38.06
14,-0.06,1.02,0.14,40.46
14,-0.06,1.06,0.12,47.02
14,-0.04,1.00,0.12,47.54
14,-0.02,0.99,0.13,44.41
14,-0.02,1.03,0.14,36.83
14,-0.04,1.03,0.14,42.76
14,-0.03,0.97,0.13,42.76
14,-0.05,1.00,0.13,38.53
14,-0.05,1.00,0.18,40.45
14,-0.04,1.02,0.12,40.45
14,-0.02,0.97,0.12,37.43
14,-0.02,0.96,0.14,42.76
14,-0.05,1.02,0.14,42.72
14,-0.04,0.99,0.13,39.58
14,-0.04,0.99,0.13,36.45
14,-0.03,0.99,0.13,38.88
14,-0.05,1.02,0.12,38.88
14,-0.02,0.97,0.13,39.57
14,-0.02,0.97,0.13,42.66
14,-0.05,1.01,0.13,42.66
14,-0.04,1.00,0.12,44.58
14,-0.04,1.00,0.12,40.66
14,-0.02,0.98,0.12,40.66
14,-0.05,1.02,0.14,38.84
14,-0.05,1.03,0.12,43.83
14,-0.03,0.97,0.12,43.91
14,-0.04,0.99,0.13,47.04
14,-0.04,1.01,0.12,42.93
14,-0.04,1.01,0.12,40.69
14,-0.03,0.98,0.12,40.69
14,-0.04,1.03,0.13,38.89
14,-0.04,1.03,0.18,41.99
14,-0.03,0.99,0.12,41.99
14,-0.03,0.99,0.13,46.51
14,-0.03,0.96,0.14,43.22
14,-0.04,1.02,0.14,43.50
14,-0.02,0.97,0.13,44.28
14,-0.02,1.00,0.14,45.51
14,-0.06,1.00,0.14,39.22
14,-0.03,1.01,0.13,39.22
14,-0.02,0.98,0.13,40.85
14,-0.02,0.98,0.13,40.25
14,-0.04,1.02,0.13,40.25
14,-0.03,0.98,0.13,42.95
14,-0.03,0.98,0.13,42.38
14,-0.03,1.00,0.13,42.38
14,-0.04,1.02,0.12,40.54
14,-0.04,1.04,0.13,43.31
14,-0.02,0.98,0.13,45.37
14,-0.06,1.02,0.14,45.37
14,-0.06,1.00,0.12,46.87
14,-0.04,1.00,0.06,44.86
14,-0.04,0.98,0.13,44.86
14,-0.04,1.04,0.12,42.25
14,-0.04,1.04,0.12,37.72
14,-0.03,0.97,0.12,37.72
14,-0.04,1.01,0.13,42.84
14,-0.04,1.01,0.12,45.36
14,-0.03,1.01,0.12,45.36
14,-0.02,0.98,0.12,41.44
14,-0.02,1.02,0.14,44.14
14,-0.05,1.02,0.14,42.57
14,-0.03,0.98,0.12,42.57
14,-0.03,0.99,0.12,42.13
14,-0.03,0.99,0.12,46.02
14,-0.05,1.02,0.12,46.02
14,-0.02,0.97,0.12,42.77
14,-0.02,0.97,0.14,39.84
14,-0.05,1.01,0.14,39.82
14,-0.04,0.99,0.12,39.82
14,-0.04,0.99,0.13,38.87
14,-0.02,0.99,0.13,36.54
14,-0.05,1.02,0.13,36.54
14,-0.05,0.97,0.12,46.56
14,-0.03,0.97,0.07,43.74
14,-0.04,1.00,0.14,43.74
14,-0.04,1.02,0.11,40.77
14,-0.04,1.02,0.13,39.47
14,-0.03,0.98,0.13,39.47
14,-0.05,1.02,0.14,37.84
14,-0.05,1.05,0.12,40.84
14,-0.03,0.98,0.12,40.86
14,-0.03,0.99,0.13,40.86
14,-0.03,1.03,0.13,37.38
14,-0.04,1.03,0.13,35.87
14,-0.02,0.97,0.12,35.87
14,-0.05,1.01,0.13,41.46
14,-0.05,1.01,0.19,43.20
14,-0.05,1.01,0.12,43.20
14,-0.02,0.99,0.12,44.01
14,-0.02,0.99,0.13,43.18
14,-0.05,1.03,0.13,43.37
14,-0.03,0.98,0.12,41.80
14,-0.03,1.00,0.13,42.22
14,-0.04,1.00,0.13,41.25
14,-0.04,1.02,0.12,41.25
14,-0.04,0.99,0.12,37.00
14,-0.03,0.99,0.07,37.05
14,-0.05,1.01,0.13,37.05
14,-0.04,0.99,0.11,36.74
14,-0.04,0.99,0.13,45.95
14,-0.04,0.98,0.13,45.95
14,-0.04,1.02,0.13,40.49
14,-0.04,1.04,0.13,40.42
14,-0.02,0.98,0.13,40.30
14,-0.05,1.01,0.13,44.22
14,-0.05,1.01,0.12,38.18
14,-0.03,1.01,0.12,45.35
14,-0.02,0.98,0.13,45.35
14,-0.05,1.02,0.13,41.76
14,-0.05,1.02,0.19,41.74
14,-0.03,0.99,0.12,41.74
14,-0.04,1.00,0.13,38.66
14,-0.04,1.00,0.13,38.60
14,-0.04,1.02,0.13,38.51
15,-0.03,0.94,0.13,37.82
15,-0.04,1.00,0.13,37.76
15,-0.04,1.01,0.12,40.89
15,-0.04,0.98,0.13,40.26
15,-0.02,0.98,0.13,41.05
15,-0.05,1.02,0.14,41.05
15,-0.04,0.98,0.12,38.39
15,-0.04,0.98,0.07,38.51
15,-0.03,0.99,0.13,38.51
15,-0.04,1.02,0.13,37.07
15,-0.04,1.02,0.12,45.14
15,-0.02,0.97,0.12,44.81
15,-0.05,1.01,0.13,40.11
15,-0.05,1.00,0.12,39.83
15,-0.04,1.00,0.12,44.69
15,-0.03,0.98,0.12,44.69
15,-0.04,1.03,0.14,43.92
15,-0.04,1.03,0.18,41.79
15,-0.03,0.98,0.12,41.79
15,-0.04,1.00,0.14,39.60
15,-0.04,1.00,0.12,40.05
15,-0.04,1.02,0.12,40.05
15,-0.02,0.99,0.13,44.09
15,-0.02,0.96,0.13,41.78
15,-0.05,1.02,0.13,41.64
15,-0.04,0.98,0.13,42.42
15,-0.04,0.99,0.13,44.54
15,-0.03,0.99,0.13,42.88
15,-0.03,1.02,0.12,42.88
15,-0.02,0.97,0.12,41.18
15,-0.02,0.97,0.07,37.79
15,-0.05,1.01,0.13,37.79
15,-0.04,1.01,0.12,39.40
15,-0.04,1.05,0.13,46.00
15,-0.02,0.98,0.13,45.58
15,-0.05,1.03,0.12,42.44
15,-0.05,0.98,0.13,43.02
15,-0.03,0.98,0.13,38.08
15,-0.04,1.00,0.13,38.08
15,-0.04,1.02,0.12,40.76
15,-0.04,1.02,0.12,44.58
15,-0.02,0.98,0.12,44.58
15,-0.05,1.01,0.14,38.90
15,-0.05,1.01,0.13,39.88
15,-0.04,0.99,0.13,39.88
15,-0.03,0.99,0.13,41.49
15,-0.03,0.96,0.13,42.01
15,-0.04,1.02,0.13,41.90
15,-0.02,0.98,0.13,41.90
15,-0.02,1.00,0.13,42.43
15,-0.05,1.00,0.13,47.45
15,-0.04,1.01,0.12,47.45
15,-0.03,0.98,0.11,43.02
15,-0.03,0.98,0.08,45.18
15,-0.05,1.02,0.14,45.18
15,-0.04,0.98,0.12,41.76
15,-0.04,0.99,0.13,39.21
15,-0.04,0.99,0.13,39.67
15,-0.04,1.02,0.13,43.58
15,-0.04,0.98,0.11,41.80
15,-0.03,0.98,0.11,38.38
15,-0.05,1.01,0.13,38.38
15,-0.04,1.00,0.12,40.31
15,-0.04,1.00,0.06,42.63
15,-0.02,0.99,0.13,42.63
15,-0.05,1.03,0.14,43.70
15,-0.05,1.03,0.12,38.26
15,-0.03,0.98,0.12,38.26
15,-0.05,1.00,0.13,47.88
15,-0.05,0.96,0.13,45.89
15,-0.04,1.02,0.13,42.05
15,-0.02,0.98,0.12,42.05
15,-0.02,1.02,0.14,39.33
15,-0.06,1.02,0.13,38.59
15,-0.03,0.99,0.13,38.59
15,-0.03,0.99,0.13,42.40
15,-0.03,0.99,0.12,43.14
15,-0.04,1.02,0.12,43.14
15,-0.03,0.98,0.13,44.14
15,-0.03,0.95,0.13,40.74
15,-0.06,1.01,0.13,41.16
15,-0.04,1.01,0.12,39.59
15,-0.04,0.98,0.13,47.69
15,-0.02,0.98,0.13,40.69
15,-0.04,1.02,0.13,40.69
15,-0.03,0.98,0.13,37.13
15,-0.03,0.98,0.14,38.58
15,-0.05,1.00,0.14,38.58
15,-0.04,1.02,0.12,42.93
15,-0.04,1.02,0.13,42.10
15,-0.02,0.97,0.13,41.93
15,-0.05,1.01,0.14,38.80
15,-0.05,1.06,0.11,43.41
15,-0.03,1.00,0.11,45.00
15,-0.03,0.99,0.12,45.00
15,-0.03,1.02,0.13,43.33
15,-0.04,1.02,0.18,44.03
15,-0.03,0.97,0.12,44.03
15,-0.05,1.01,0.13,39.91
15,-0.05,1.01,0.12,43.54
15,-0.04,1.01,0.12,43.54
15,-0.02,0.98,0.13,39.68
15,-0.02,0.97,0.13,38.76
15,-0.05,1.03,0.13,38.82
15,-0.04,0.98,0.13,43.52
15,-0.04,1.00,0.14,45.18
15,-0.04,1.00,0.14,40.43
15,-0.04,1.02,0.13,40.43
15,-0.02,0.97,0.13,39.90
15,-0.02,0.97,0.14,40.02
15,-0.06,1.01,0.14,40.02
15,-0.03,1.00,0.13,41.12
15,-0.03,1.00,0.14,44.92
15,-0.03,0.99,0.14,45.32
15,-0.04,1.03,0.13,42.19
15,-0.04,1.04,0.12,42.25
15,-0.03,0.98,0.12,39.82
15,-0.04,1.00,0.13,39.82
15,-0.04,1.02,0.12,36.77
15,-0.03,1.02,0.12,36.08
15,-0.02,0.98,0.12,36.08
15,-0.05,1.03,0.13,41.62
15,-0.05,1.03,0.12,41.44
15,-0.03,0.99,0.12,41.44
15,-0.03,0.99,0.13,42.56
15,-0.03,0.96,0.13,41.19
15,-0.04,1.03,0.13,41.31
15,-0.02,0.97,0.13,40.53
15,-0.02,1.01,0.13,40.43
15,-0.05,1.01,0.13,40.83
15,-0.03,1.00,0.12,40.83
15,-0.03,0.99,0.12,36.13
15,-0.03,0.99,0.07,37.98
15,-0.05,1.03,0.13,37.98
15,-0.03,0.97,0.12,38.97
15,-0.03,0.97,0.13,41.25
15,-0.05,1.00,0.13,41.21
15,-0.04,1.02,0.13,43.56
15,-0.04,1.04,0.13,44.33
15,-0.02,0.98,0.13,44.00
15,-0.05,1.02,0.14,44.00
15,-0.03,0.99,0.13,43.64
15,-0.03,0.99,0.13,42.04
15,-0.04,1.00,0.13,42.04
15,-0.04,1.03,0.12,38.70
15,-0.04,1.03,0.13,38.14
15,-0.02,0.97,0.13,38.14
15,-0.05,1.00,0.14,38.76
15,-0.05,1.01,0.12,42.84
15,-0.03,1.01,0.12,42.43
15,-0.02,0.98,0.12,40.87
15,-0.02,1.02,0.13,41.63
15,-0.05,1.02,0.13,41.05
15,-0.03,0.98,0.13,41.05
15,-0.04,1.00,0.12,40.20
15,-0.04,1.00,0.12,43.99
15,-0.03,1.02,0.12,43.99
15,-0.02,0.98,0.13,41.62
15,-0.02,0.98,0.13,43.92
15,-0.05,1.02,0.13,43.82
15,-0.03,1.00,0.12,43.82
15,-0.03,0.99,0.14,41.28
15,-0.03,0.99,0.14,43.12
15,-0.04,1.02,0.13,43.12
15,-0.02,0.98,0.12,44.07
15,-0.02,0.98,0.07,40.66
15,-0.04,1.01,0.13,40.66
15,-0.04,1.01,0.12,43.01
15,-0.04,1.01,0.12,45.82
15,-0.02,0.98,0.12,45.82
15,-0.05,1.02,0.13,42.75
15,-0.05,1.04,0.13,42.41
15,-0.04,0.98,0.13,42.74
15,-0.04,0.99,0.13,44.30
15,-0.04,1.03,0.13,41.79
15,-0.04,1.03,0.13,42.15
15,-0.03,0.97,0.12,42.15
15,-0.06,1.01,0.13,47.00
15,-0.06,1.01,0.13,39.06
15,-0.04,1.00,0.13,39.06
15,-0.03,0.98,0.14,43.33
15,-0.03,0.96,0.13,40.02
15,-0.05,1.02,0.13,40.65
15,-0.02,0.98,0.13,38.30
15,-0.02,0.99,0.13,37.88
15,-0.04,0.99,0.13,43.10
15,-0.04,1.02,0.13,43.10
15,-0.01,0.98,0.12,37.36
15,-0.01,0.98,0.07,37.94
15,-0.04,1.02,0.14,37.94
15,-0.04,0.99,0.12,41.18
15,-0.04,0.99,0.12,41.05
15,-0.03,0.99,0.12,41.05
15,-0.04,1.02,0.13,41.98
15,-0.04,1.04,0.12,45.83
15,-0.03,0.97,0.12,45.66
15,-0.05,1.01,0.13,40.17
15,-0.05,1.01,0.12,48.97
15,-0.05,1.01,0.12,39.40
15,-0.02,0.99,0.13,39.40
15,-0.05,1.03,0.12,42.23
15,-0.05,1.03,0.13,41.55
15,-0.04,0.98,0.13,41.55
15,-0.05,0.99,0.13,42.66
15,-0.05,0.95,0.13,37.95
15,-0.04,1.02,0.13,37.65
15,-0.03,0.98,0.13,42.35
15,-0.03,1.01,0.14,41.86
15,-0.05,1.01,0.14,43.65
15,-0.03,0.99,0.12,43.65
15,-0.03,0.99,0.13,41.54
15,-0.03,0.99,0.13,43.03
15,-0.04,1.03,0.13,43.03
15,-0.03,0.98,0.12,40.35
15,-0.03,0.98,0.13,41.66
15,-0.04,1.00,0.13,41.99
15,-0.03,1.01,0.12,38.86
15,-0.03,1.05,0.13,35.63
15,-0.02,0.99,0.13,45.28
15,-0.06,1.02,0.13,45.28
15,-0.06,0.98,0.12,39.62
15,-0.04,0.98,0.07,39.97
15,-0.04,1.00,0.13,39.97
15,-0.04,1.02,0.12,39.54
15,-0.04,1.02,0.13,41.29
15,-0.02,0.98,0.13,41.29
15,-0.05,1.02,0.13,40.02
15,-0.05,1.06,0.12,42.40
15,-0.04,1.00,0.12,42.81
15,-0.03,0.99,0.13,42.03
15,-0.03,1.02,0.13,46.23
15,-0.04,1.02,0.13,42.03
15,-0.02,0.98,0.12,42.03
16,-0.04,1.00,0.13,40.78
16,-0.04,1.02,0.13,40.78
16,-0.02,0.98,0.12,43.14
16,-0.02,0.98,0.13,43.73
16,-0.05,1.01,0.13,43.73
16,-0.03,1.00,0.12,39.89
16,-0.03,1.05,0.12,36.93
16,-0.02,0.99,0.12,37.33
16,-0.05,1.02,0.13,42.03
16,-0.05,0.98,0.13,45.54
16,-0.03,0.98,0.13,42.82
16,-0.04,1.00,0.13,42.82
16,-0.04,1.01,0.12,46.97
16,-0.04,1.01,0.06,43.79
16,-0.02,0.98,0.13,43.79
16,-0.04,1.02,0.14,41.69
16,-0.04,1.02,0.13,45.04
16,-0.04,0.99,0.13,44.59
16,-0.02,0.99,0.14,46.16
16,-0.02,1.02,0.12,41.90
16,-0.04,1.02,0.12,40.60
16,-0.03,0.98,0.12,40.60
16,-0.05,1.00,0.12,40.78
16,-0.05,1.00,0.12,41.51
16,-0.04,1.00,0.12,41.51
16,-0.03,0.98,0.12,41.27
16,-0.03,0.98,0.13,40.32
16,-0.04,1.02,0.13,40.32
16,-0.03,0.99,0.12,43.57
16,-0.03,0.99,0.14,42.28
16,-0.04,0.99,0.14,42.94
16,-0.03,1.02,0.12,43.73
16,-0.03,0.97,0.14,41.43
16,-0.02,0.97,0.13,43.69
16,-0.05,1.02,0.13,43.69
16,-0.04,1.00,0.13,42.65
16,-0.04,1.00,0.12,43.87
16,-0.03,0.98,0.12,43.87
16,-0.04,1.02,0.13,42.21
16,-0.04,1.04,0.13,40.24
16,-0.04,0.98,0.13,40.06
16,-0.05,1.00,0.13,41.63
16,-0.05,1.01,0.12,39.33
16,-0.04,1.01,0.12,41.38
16,-0.03,0.98,0.12,41.38
16,-0.05,1.02,0.12,43.82
16,-0.05,1.02,0.12,44.13
16,-0.03,0.99,0.12,44.13
16,-0.04,0.99,0.14,41.48
16,-0.04,0.99,0.12,39.30
16,-0.04,1.02,0.12,39.62
16,-0.02,0.97,0.12,48.23
16,-0.02,0.95,0.13,38.81
16,-0.05,1.01,0.13,41.18
16,-0.03,1.00,0.12,41.18
16,-0.03,0.98,0.13,46.52
16,-0.03,0.98,0.18,40.48
16,-0.04,1.03,0.12,40.48
16,-0.03,0.98,0.12,42.83
16,-0.03,0.98,0.14,41.08
16,-0.05,1.00,0.14,41.08
16,-0.03,1.01,0.13,43.22
16,-0.03,1.04,0.14,43.42
16,-0.02,0.98,0.14,43.03
16,-0.05,1.02,0.14,39.90
16,-0.05,0.98,0.13,39.75
16,-0.03,0.98,0.13,36.94
16,-0.04,0.98,0.13,36.94
16,-0.05,1.02,0.13,39.74
16,-0.05,1.02,0.18,37.08
16,-0.03,0.98,0.12,37.08
16,-0.04,1.00,0.12,41.27
16,-0.04,1.00,0.12,38.38
16,-0.03,1.00,0.12,38.62
16,-0.03,0.99,0.13,41.75
16,-0.03,0.96,0.13,42.60
16,-0.05,1.02,0.13,42.12
16,-0.03,0.98,0.13,42.12
16,-0.05,1.00,0.14,42.64
16,-0.05,1.00,0.13,39.29
16,-0.04,1.02,0.13,39.29
16,-0.02,0.98,0.13,35.60
16,-0.02,0.98,0.14,41.03
16,-0.04,1.02,0.14,41.03
16,-0.03,0.99,0.12,38.23
16,-0.03,0.99,0.13,36.34
16,-0.03,0.99,0.13,36.25
16,-0.05,1.02,0.13,44.86
16,-0.05,0.98,0.12,41.35
16,-0.03,0.98,0.12,40.15
16,-0.04,1.00,0.13,40.15
16,-0.03,1.00,0.12,39.57
16,-0.03,1.00,0.07,36.69
16,-0.02,0.99,0.13,36.69
16,-0.05,1.02,0.14,41.56
16,-0.05,1.04,0.12,40.88
16,-0.03,0.98,0.12,40.95
16,-0.04,0.99,0.13,39.38
16,-0.04,1.02,0.13,43.11
16,-0.04,1.02,0.13,46.08
16,-0.03,0.98,0.12,46.08
16,-0.06,1.01,0.13,38.49
16,-0.06,1.01,0.13,38.88
16,-0.03,1.00,0.13,38.88
16,-0.03,0.99,0.13,40.44
16,-0.03,0.99,0.13,37.58
16,-0.04,1.03,0.13,37.58
16,-0.03,0.98,0.13,36.23
16,-0.03,0.94,0.13,35.64
16,-0.04,1.01,0.13,35.67
16,-0.04,1.02,0.12,42.72
16,-0.04,0.97,0.12,38.27
16,-0.03,0.97,0.12,42.96
16,-0.04,1.01,0.13,42.96
16,-0.03,0.98,0.12,37.73
16,-0.03,0.98,0.12,40.51
16,-0.03,1.00,0.12,40.51
16,-0.04,1.02,0.13,46.01
16,-0.04,1.04,0.12,43.93
16,-0.02,0.98,0.12,44.49
16,-0.05,1.01,0.13,43.71
16,-0.05,1.00,0.12,38.80
16,-0.04,1.00,0.12,43.51
16,-0.03,0.99,0.13,43.51
16,-0.05,1.02,0.13,42.34
16,-0.05,1.02,0.18,42.65
16,-0.04,0.98,0.12,42.65
16,-0.04,1.00,0.13,41.06
16,-0.04,1.00,0.13,40.57
16,-0.04,1.02,0.13,40.59
16,-0.02,0.98,0.12,45.29
16,-0.02,0.95,0.13,38.76
16,-0.05,1.01,0.13,37.11
16,-0.03,0.99,0.13,37.11
16,-0.03,0.99,0.13,37.89
16,-0.03,0.99,0.13,43.69
16,-0.04,1.03,0.13,43.69
16,-0.02,0.98,0.13,38.98
16,-0.02,0.98,0.13,40.59
16,-0.05,1.01,0.13,40.59
16,-0.04,1.01,0.12,40.19
16,-0.04,1.04,0.12,47.28
16,-0.02,0.98,0.12,47.29
16,-0.05,1.02,0.13,42.59
16,-0.05,0.99,0.12,45.63
16,-0.03,0.99,0.12,40.73
16,-0.04,1.00,0.13,40.73
16,-0.04,1.02,0.13,40.56
16,-0.04,1.02,0.18,41.54
16,-0.02,0.98,0.12,41.54
16,-0.04,1.01,0.13,41.94
16,-0.04,1.01,0.12,38.82
16,-0.04,0.99,0.12,38.76
16,-0.02,0.99,0.12,41.11
16,-0.02,0.96,0.13,43.23
16,-0.04,1.02,0.13,41.68
16,-0.03,0.97,0.13,41.68
16,-0.03,1.00,0.13,43.60
16,-0.04,1.00,0.13,40.75
16,-0.04,1.01,0.13,40.75
16,-0.02,0.99,0.13,45.66
16,-0.02,0.99,0.13,47.06
16,-0.05,1.01,0.13,47.06
16,-0.03,0.98,0.12,44.01
16,-0.03,0.99,0.13,43.60
16,-0.04,0.99,0.13,43.22
16,-0.04,1.02,0.12,44.79
16,-0.04,0.98,0.14,37.57
16,-0.02,0.98,0.14,42.78
16,-0.05,1.01,0.14,42.78
16,-0.04,1.00,0.13,46.68
16,-0.04,1.00,0.19,38.82
16,-0.03,0.99,0.12,38.82
16,-0.04,1.02,0.13,41.27
16,-0.04,1.02,0.12,40.74
16,-0.03,0.98,0.12,41.01
16,-0.05,1.00,0.13,44.92
16,-0.05,1.01,0.12,45.31
16,-0.03,1.01,0.12,40.57
16,-0.02,0.98,0.12,40.57
16,-0.05,1.01,0.12,44.27
16,-0.05,1.01,0.12,40.31
16,-0.01,0.99,0.12,40.31
16,-0.03,0.99,0.13,41.80
16,-0.03,0.99,0.13,38.23
16,-0.04,1.02,0.13,38.23
16,-0.03,0.98,0.13,40.03
16,-0.03,0.94,0.13,40.04
16,-0.05,1.00,0.13,40.31
16,-0.04,1.01,0.13,38.74
16,-0.04,0.99,0.13,42.49
16,-0.02,0.99,0.13,39.72
16,-0.05,1.02,0.13,39.72
16,-0.03,0.98,0.13,38.34
16,-0.03,0.98,0.13,38.16
16,-0.05,0.99,0.13,38.16
16,-0.04,1.02,0.12,43.05
16,-0.04,1.02,0.12,43.60
16,-0.02,0.98,0.12,43.75
16,-0.05,1.01,0.14,39.84
16,-0.05,1.00,0.14,40.15
16,-0.03,1.00,0.14,42.02
16,-0.03,0.99,0.13,42.02
16,-0.04,1.02,0.13,39.19
16,-0.04,1.02,0.13,42.81
16,-0.02,0.98,0.13,42.81
16,-0.04,1.01,0.13,44.33
16,-0.04,1.01,0.13,39.49
16,-0.03,1.00,0.13,39.49
16,-0.03,0.98,0.12,43.31
16,-0.03,0.96,0.14,36.83
16,-0.05,1.02,0.14,36.77
16,-0.04,0.99,0.12,39.90
16,-0.04,0.99,0.12,44.80
16,-0.04,0.99,0.12,43.60
16,-0.04,1.03,0.12,43.60
16,-0.03,0.98,0.13,43.70
16,-0.03,0.98,0.13,41.96
16,-0.05,1.01,0.13,41.96
16,-0.03,0.99,0.13,37.07
16,-0.03,0.99,0.13,42.59
16,-0.03,0.99,0.13,43.00
16,-0.04,1.02,0.13,38.30
16,-0.04,0.98,0.11,40.80
16,-0.03,0.98,0.11,37.35
16,-0.04,1.00,0.13,37.35
16,-0.04,1.01,0.12,48.41
16,-0.04,1.01,0.07,42.51
16,-0.03,0.98,0.13,42.51
16,-0.05,1.01,0.13,39.67
16,-0.05,1.01,0.12,39.65
16,-0.03,0.99,0.12,39.29
16,-0.03,0.99,0.13,38.50
17,-0.05,1.02,0.13,45.80
17,-0.03,0.98,0.12,45.80
17,-0.03,1.00,0.13,39.18
17,-0.04,1.00,0.18,38.44
17,-0.04,1.01,0.12,38.44
17,-0.02,0.98,0.13,44.56
17,-0.02,0.98,0.14,37.40
17,-0.05,1.01,0.14,37.40
17,-0.03,0.99,0.12,39.29
17,-0.03,0.99,0.13,49.98
17,-0.03,0.99,0.13,49.61
17,-0.04,1.02,0.13,44.12
17,-0.04,0.98,0.13,41.81
17,-0.03,0.98,0.13,42.04
17,-0.05,1.00,0.13,42.04
17,-0.04,1.01,0.12,43.31
17,-0.04,1.01,0.12,35.01
17,-0.03,0.98,0.12,35.01
17,-0.05,1.02,0.14,43.85
17,-0.05,1.02,0.12,40.13
17,-0.03,0.98,0.12,40.28
17,-0.04,0.99,0.13,43.42
17,-0.04,0.96,0.12,40.20
17,-0.04,1.02,0.12,40.85
17,-0.03,0.98,0.13,40.85
17,-0.03,1.01,0.14,40.85
17,-0.05,1.01,0.13,42.83
17,-0.04,0.99,0.13,42.83
17,-0.03,0.98,0.12,41.53
17,-0.03,0.98,0.13,39.79
17,-0.04,1.03,0.13,39.79
17,-0.03,0.98,0.13,40.84
17,-0.03,1.00,0.13,43.22
17,-0.05,1.00,0.13,43.23
17,-0.04,1.01,0.12,38.53
17,-0.04,0.98,0.12,46.35
17,-0.02,0.98,0.12,40.40
17,-0.05,1.02,0.13,40.40
17,-0.03,0.98,0.11,38.69
17,-0.03,0.98,0.07,40.38
17,-0.03,0.99,0.13,40.38
17,-0.05,1.02,0.13,39.49
17,-0.05,1.02,0.13,42.14
17,-0.03,0.97,0.13,41.88
17,-0.05,1.01,0.13,38.75
17,-0.05,1.00,0.13,39.38
17,-0.03,1.00,0.13,42.30
17,-0.04,0.98,0.13,42.30
17,-0.04,1.02,0.13,45.90
17,-0.05,1.02,0.19,41.91
17,-0.03,0.98,0.12,41.91
17,-0.05,1.00,0.13,46.97
17,-0.05,1.00,0.13,45.11
17,-0.04,1.01,0.13,45.11
17,-0.02,0.98,0.13,41.77
17,-0.02,0.95,0.13,42.41
17,-0.04,1.02,0.13,42.99
17,-0.03,0.99,0.12,43.78
17,-0.03,0.99,0.12,43.29
17,-0.04,0.99,0.12,43.39
17,-0.04,1.02,0.12,43.39
17,-0.03,0.98,0.13,44.12
17,-0.03,0.98,0.13,42.12
17,-0.05,1.00,0.13,42.12
17,-0.03,1.00,0.12,42.34
17,-0.03,1.00,0.12,44.47
17,-0.03,0.98,0.12,44.53
17,-0.04,1.02,0.13,45.32
17,-0.04,1.05,0.13,42.52
17,-0.03,0.99,0.13,41.42
17,-0.05,1.00,0.13,41.42
17,-0.05,1.02,0.12,37.54
17,-0.03,1.02,0.12,40.87
17,-0.02,0.98,0.12,40.87
17,-0.04,1.02,0.13,43.26
17,-0.04,1.02,0.13,46.06
17,-0.04,0.99,0.13,46.06
17,-0.04,0.99,0.13,42.34
17,-0.04,0.96,0.14,43.53
17,-0.04,1.02,0.14,43.74
17,-0.02,0.98,0.12,40.61
17,-0.02,1.00,0.13,46.37
17,-0.05,1.00,0.13,41.80
17,-0.04,1.01,0.12,41.80
17,-0.03,0.98,0.12,41.42
17,-0.03,0.98,0.07,37.02
17,-0.05,1.02,0.13,37.02
17,-0.03,0.99,0.13,39.36
17,-0.03,0.99,0.14,40.91
17,-0.03,1.00,0.14,41.20
17,-0.04,1.02,0.13,41.20
17,-0.04,0.98,0.13,45.87
17,-0.03,0.98,0.13,40.32
17,-0.05,1.01,0.14,40.32
17,-0.04,0.99,0.13,40.05
17,-0.04,0.99,0.13,40.48
17,-0.03,0.98,0.13,40.48
17,-0.05,1.02,0.13,37.92
17,-0.05,1.02,0.13,38.84
17,-0.03,0.98,0.13,38.84
17,-0.04,1.00,0.13,41.81
17,-0.04,0.95,0.13,42.74
17,-0.04,1.01,0.13,42.39
17,-0.03,0.99,0.13,41.61
17,-0.03,1.02,0.13,40.92
17,-0.05,1.02,0.13,40.53
17,-0.03,1.00,0.13,40.53
17,-0.04,1.00,0.13,46.29
17,-0.04,1.00,0.13,38.55
17,-0.04,1.02,0.13,38.55
17,-0.03,0.99,0.12,43.01
17,-0.03,0.94,0.12,40.93
17,-0.05,1.01,0.12,41.12
17,-0.04,1.00,0.12,42.69
17,-0.04,0.99,0.13,39.89
17,-0.03,0.99,0.13,47.23
17,-0.04,1.03,0.13,47.23
17,-0.03,0.98,0.12,44.86
17,-0.03,0.98,0.07,39.07
17,-0.05,1.00,0.14,39.07
17,-0.04,1.02,0.13,41.59
17,-0.04,1.02,0.13,41.56
17,-0.03,0.98,0.13,41.56
17,-0.05,1.02,0.12,42.24
17,-0.05,1.05,0.12,45.20
17,-0.04,0.98,0.12,44.71
17,-0.04,0.99,0.13,40.01
17,-0.04,1.03,0.13,38.53
17,-0.04,1.03,0.13,37.09
17,-0.03,0.98,0.13,37.09
17,-0.05,1.00,0.14,47.24
17,-0.05,1.00,0.12,44.16
17,-0.03,1.01,0.12,44.16
17,-0.02,0.98,0.12,42.95
17,-0.02,0.96,0.12,42.13
17,-0.05,1.02,0.12,42.20
17,-0.03,0.99,0.12,42.98
17,-0.03,1.00,0.13,36.71
17,-0.04,1.00,0.13,39.16
17,-0.04,1.02,0.12,39.16
17,-0.02,0.98,0.12,38.05
17,-0.02,0.98,0.06,42.59
17,-0.05,1.01,0.13,42.59
17,-0.03,0.99,0.13,40.49
17,-0.03,0.99,0.13,42.96
17,-0.03,0.98,0.13,42.96
17,-0.05,1.01,0.13,41.52
17,-0.05,1.05,0.13,43.72
17,-0.02,0.99,0.13,46.77
17,-0.04,1.01,0.13,46.77
17,-0.04,1.01,0.12,43.14
17,-0.03,1.01,0.06,38.86
17,-0.02,0.99,0.13,38.86
17,-0.05,1.02,0.14,43.01
17,-0.05,1.02,0.13,41.39
17,-0.03,0.98,0.13,41.39
17,-0.03,1.00,0.13,40.83
17,-0.03,0.96,0.13,41.14
17,-0.04,1.02,0.13,41.01
17,-0.02,0.98,0.13,39.44
17,-0.02,1.01,0.14,40.40
17,-0.05,1.01,0.14,40.62
17,-0.04,1.00,0.13,40.62
17,-0.02,0.99,0.13,41.03
17,-0.02,0.99,0.14,41.31
17,-0.04,1.02,0.14,41.31
17,-0.04,0.98,0.13,45.10
17,-0.04,0.98,0.12,44.12
17,-0.04,1.00,0.12,44.22
17,-0.04,1.01,0.12,41.87
17,-0.04,1.04,0.12,40.76
17,-0.03,0.98,0.12,39.34
17,-0.04,1.01,0.13,39.34
17,-0.04,0.99,0.12,41.90
17,-0.04,0.99,0.07,38.60
17,-0.04,0.99,0.14,38.60
17,-0.04,1.02,0.13,39.22
17,-0.04,1.02,0.13,39.01
17,-0.03,0.98,0.13,39.01
17,-0.05,1.00,0.14,39.14
17,-0.05,1.06,0.13,43.08
17,-0.05,1.00,0.13,43.62
17,-0.03,0.98,0.13,44.40
17,-0.03,1.02,0.13,42.61
17,-0.04,1.02,0.13,39.87
17,-0.03,0.98,0.12,39.87
17,-0.05,0.99,0.14,39.48
17,-0.05,0.99,0.18,40.58
17,-0.03,1.01,0.12,40.58
17,-0.02,0.98,0.12,38.73
17,-0.02,0.98,0.13,35.36
17,-0.04,1.01,0.13,35.69
17,-0.04,0.99,0.13,43.52
17,-0.04,0.99,0.13,41.33
17,-0.04,0.99,0.13,41.72
17,-0.04,1.03,0.12,41.72
17,-0.04,0.98,0.13,39.83
17,-0.02,0.98,0.14,44.20
17,-0.05,1.01,0.14,44.20
17,-0.04,1.00,0.12,43.48
17,-0.04,1.00,0.13,41.81
17,-0.03,0.98,0.13,41.81
17,-0.04,1.02,0.14,40.01
17,-0.04,1.05,0.13,37.35
17,-0.04,0.99,0.13,37.41
17,-0.03,1.00,0.13,37.41
17,-0.03,1.02,0.12,42.55
17,-0.04,1.02,0.12,40.76
17,-0.02,0.98,0.12,40.76
17,-0.04,1.01,0.13,45.31
17,-0.04,1.01,0.13,40.37
17,-0.04,0.99,0.13,40.37
17,-0.03,0.99,0.13,42.22
17,-0.03,0.99,0.13,43.77
17,-0.05,1.02,0.13,43.77
17,-0.03,0.98,0.11,38.29
17,-0.03,0.94,0.13,38.74
17,-0.04,1.01,0.13,39.46
17,-0.04,1.01,0.13,39.46
17,-0.02,0.98,0.12,42.03
17,-0.02,0.98,0.07,44.04
17,-0.05,1.02,0.13,44.04
17,-0.03,0.99,0.12,40.63
17,-0.03,0.99,0.12,45.98
17,-0.03,1.00,0.12,45.98
17,-0.03,1.03,0.12,36.69
17,-0.03,1.04,0.13,43.53
17,-0.03,0.98,0.13,43.31
17,-0.05,1.01,0.14,49.57
17,-0.05,1.00,0.13,48.20
17,-0.04,1.00,0.13,41.95
17,-0.03,0.98,0.13,41.95
17,-0.04,1.02,0.13,38.56
18,-0.04,0.98,0.12,38.58
18,-0.04,0.99,0.12,42.59
18,-0.04,0.99,0.13,36.80
18,-0.04,1.02,0.13,36.97
18,-0.03,0.98,0.12,40.10
18,-0.03,0.94,0.13,43.52
18,-0.05,1.00,0.13,39.84
18,-0.04,1.01,0.12,39.84
18,-0.03,0.99,0.13,44.56
18,-0.03,0.99,0.13,43.89
18,-0.05,1.02,0.13,43.89
18,-0.03,0.98,0.14,41.51
18,-0.03,0.98,0.13,42.11
18,-0.04,1.00,0.13,42.11
18,-0.04,1.02,0.13,42.21
18,-0.04,1.04,0.13,39.73
18,-0.03,0.97,0.13,39.65
18,-0.05,1.01,0.14,38.86
18,-0.05,0.99,0.13,41.24
18,-0.03,0.99,0.13,38.10
18,-0.03,0.99,0.13,38.10
18,-0.04,1.02,0.13,44.65
18,-0.04,1.02,0.13,40.81
18,-0.03,0.98,0.13,40.81
18,-0.05,1.00,0.13,41.61
18,-0.05,1.01,0.13,40.63
18,-0.04,1.01,0.13,40.65
18,-0.03,0.99,0.12,43.79
18,-0.03,1.02,0.13,43.68
18,-0.04,1.02,0.13,41.79
18,-0.04,0.99,0.12,41.79
18,-0.03,1.00,0.13,40.04
18,-0.03,1.00,0.19,43.41
18,-0.04,1.02,0.12,43.41
18,-0.03,0.98,0.12,39.38
18,-0.03,0.98,0.12,37.77
18,-0.05,1.01,0.12,37.74
18,-0.03,0.99,0.12,44.01
18,-0.03,0.99,0.13,40.09
18,-0.03,0.99,0.13,38.98
18,-0.04,1.02,0.13,38.98
18,-0.04,0.98,0.13,41.47
18,-0.03,0.98,0.13,38.33
18,-0.05,1.00,0.13,38.33
18,-0.03,1.01,0.12,39.68
18,-0.03,1.01,0.12,38.05
18,-0.03,0.98,0.12,38.05
18,-0.05,1.02,0.14,39.63
18,-0.05,1.06,0.13,39.03
18,-0.03,1.00,0.13,38.84
18,-0.02,0.99,0.13,43.54
18,-0.02,1.02,0.12,42.26
18,-0.04,1.02,0.12,46.08
18,-0.03,0.98,0.13,46.08
18,-0.05,1.02,0.13,41.55
18,-0.05,1.02,0.13,40.51
18,-0.03,1.01,0.13,40.51
18,-0.03,0.98,0.12,37.93
18,-0.03,0.98,0.13,43.32
18,-0.05,1.02,0.13,43.14
18,-0.04,0.99,0.12,44.71
18,-0.04,1.00,0.13,41.34
18,-0.04,1.00,0.13,46.48
18,-0.05,1.02,0.12,46.48
18,-0.05,0.99,0.12,41.53
18,-0.03,0.99,0.07,45.44
18,-0.05,1.01,0.14,45.44
18,-0.03,1.00,0.13,43.27
18,-0.03,1.00,0.14,40.07
18,-0.03,0.99,0.14,40.07
18,-0.05,1.02,0.12,37.60
18,-0.05,1.04,0.13,41.71
18,-0.03,0.98,0.13,42.16
18,-0.05,1.00,0.13,44.51
18,-0.05,1.00,0.12,38.90
18,-0.03,1.00,0.12,46.09
18,-0.03,0.98,0.12,46.09
18,-0.05,1.01,0.13,37.85
18,-0.05,1.01,0.18,41.44
18,-0.03,0.99,0.12,41.44
18,-0.04,1.00,0.13,44.50
18,-0.04,1.00,0.13,46.19
18,-0.05,1.02,0.13,46.80
18,-0.03,0.98,0.12,48.37
18,-0.03,1.01,0.14,39.37
18,-0.05,1.01,0.14,43.79
18,-0.04,1.00,0.13,43.79
18,-0.03,0.99,0.12,41.13
18,-0.03,0.99,0.07,39.23
18,-0.05,1.02,0.13,39.23
18,-0.03,0.98,0.12,43.15
18,-0.03,0.98,0.13,38.87
18,-0.05,1.00,0.13,38.87
18,-0.04,1.01,0.12,40.05
18,-0.04,1.05,0.13,41.23
18,-0.02,0.99,0.13,41.26
18,-0.04,1.02,0.13,38.91
18,-0.04,0.99,0.12,44.19
18,-0.04,0.99,0.12,42.72
18,-0.04,0.99,0.13,42.72
18,-0.04,1.02,0.12,44.30
18,-0.04,1.02,0.12,40.90
18,-0.03,0.98,0.12,40.90
18,-0.04,1.01,0.14,38.18
18,-0.04,1.01,0.13,41.26
18,-0.03,1.01,0.13,40.85
18,-0.03,0.99,0.13,41.63
18,-0.03,1.02,0.13,39.83
18,-0.04,1.02,0.13,40.53
18,-0.03,0.97,0.13,40.53
18,-0.04,1.00,0.12,45.66
18,-0.04,1.00,0.07,43.55
18,-0.04,1.02,0.13,43.55
18,-0.03,0.98,0.12,44.02
18,-0.03,0.98,0.14,44.10
18,-0.05,1.01,0.14,44.10
18,-0.03,0.99,0.11,40.30
18,-0.03,0.99,0.13,45.20
18,-0.03,0.99,0.13,44.67
18,-0.04,1.01,0.13,41.54
18,-0.04,0.98,0.13,44.90
18,-0.03,0.98,0.13,43.57
18,-0.05,1.01,0.13,43.57
18,-0.04,1.01,0.13,42.51
18,-0.04,1.01,0.13,37.92
18,-0.02,0.99,0.13,37.92
18,-0.05,1.01,0.13,38.30
18,-0.05,1.04,0.12,41.22
18,-0.03,0.98,0.12,41.12
18,-0.04,0.99,0.14,41.91
18,-0.04,1.02,0.12,42.58
18,-0.04,1.02,0.12,41.11
18,-0.03,0.98,0.13,41.11
18,-0.05,1.01,0.14,45.68
18,-0.05,1.01,0.13,39.66
18,-0.04,1.00,0.13,39.66
18,-0.03,1.00,0.13,45.06
18,-0.03,1.00,0.14,40.53
18,-0.04,1.02,0.14,40.53
18,-0.03,0.98,0.13,43.00
18,-0.03,0.94,0.14,39.85
18,-0.04,1.00,0.14,40.77
18,-0.04,1.01,0.12,40.77
18,-0.04,0.98,0.13,38.65
18,-0.03,0.98,0.13,39.31
18,-0.04,1.01,0.13,39.31
18,-0.03,0.98,0.13,36.42
18,-0.03,0.98,0.14,39.33
18,-0.05,0.99,0.14,39.33
