seconds, accX, accY, accZ, temp
1,-0.13,1.03,0.14,43.46
1,-0.12,1.03,0.14,40.37
1,0.00,0.89,0.22,40.37
1,0.05,1.06,0.23,43.17
1,-0.07,1.06,0.20,42.39
1,-0.01,0.90,0.20,42.39
1,-0.01,0.98,0.17,41.17
1,-0.01,0.95,0.15,38.30
1,-0.01,1.08,0.15,37.59
1,0.06,0.91,0.16,42.29
1,0.06,1.06,0.13,48.34
1,-0.03,1.06,0.13,45.44
1,0.04,1.00,0.05,45.44
1,0.03,0.99,0.06,40.91
1,-0.03,0.99,0.01,43.03
1,-0.11,1.10,0.07,43.03
1,-0.03,0.95,0.06,41.15
1,-0.03,0.95,0.08,45.50
1,-0.08,1.01,0.08,46.05
1,-0.04,1.05,0.07,39.00
1,-0.04,1.05,0.12,40.34
1,-0.03,0.92,0.12,44.15
1,-0.05,1.06,0.17,44.15
1,-0.02,0.94,0.15,52.84
1,-0.02,0.94,0.16,45.78
1,-0.02,0.97,0.16,45.78
1,-0.02,1.07,0.18,43.50
1,-0.02,1.07,0.19,43.30
1,0.00,0.91,0.19,43.30
1,-0.07,1.01,0.19,46.20
1,-0.07,1.00,0.11,42.84
1,-0.05,1.00,0.11,42.39
1,0.01,0.95,0.11,41.61
1,0.01,1.09,0.13,41.95
1,-0.09,1.09,0.15,46.66
1,-0.02,0.94,0.09,46.66
1,-0.05,1.00,0.10,43.23
1,-0.05,1.00,0.05,40.24
1,-0.02,1.10,0.05,40.24
1,0.03,0.93,0.09,39.70
1,0.03,0.90,0.12,44.53
1,-0.08,1.08,0.12,44.08
1,0.01,0.96,0.10,44.86
1,0.01,0.97,0.13,44.54
1,-0.01,0.97,0.13,42.17
1,-0.04,1.07,0.15,42.17
1,-0.03,0.91,0.16,43.30
1,-0.03,0.91,0.17,41.95
1,-0.06,0.99,0.17,41.95
1,-0.03,1.02,0.14,47.15
1,-0.03,1.06,0.15,41.47
1,-0.00,0.94,0.15,41.63
1,-0.08,1.07,0.19,40.85
1,-0.08,0.94,0.13,43.91
1,0.00,0.94,0.13,40.94
1,-0.01,0.99,0.12,40.94
1,-0.03,1.08,0.09,41.89
1,-0.03,1.08,0.10,40.79
1,-0.01,0.94,0.10,40.79
1,-0.08,1.06,0.13,42.39
1,-0.08,1.06,0.07,43.00
1,-0.01,1.00,0.07,42.61
1,0.00,0.97,0.10,41.05
1,0.00,0.97,0.12,42.46
1,-0.07,1.09,0.12,41.88
1,-0.03,0.93,0.13,41.88
1,-0.03,1.00,0.15,49.65
1,-0.05,1.00,0.18,44.97
1,-0.02,1.05,0.12,44.97
1,0.01,0.93,0.15,41.04
1,0.01,0.93,0.19,40.85
1,-0.08,1.05,0.19,40.85
1,-0.01,0.93,0.14,44.11
1,-0.01,0.91,0.15,43.03
1,-0.02,0.97,0.15,43.58
1,-0.04,1.07,0.13,42.79
1,-0.04,0.93,0.14,42.17
1,-0.02,0.93,0.13,45.71
1,-0.08,1.03,0.13,45.71
1,-0.08,1.02,0.09,43.91
1,-0.02,1.02,0.09,49.82
1,0.01,0.96,0.09,49.82
1,-0.07,1.10,0.12,45.84
1,-0.07,1.12,0.11,47.43
1,-0.01,0.93,0.11,47.61
1,-0.04,1.01,0.12,42.91
1,-0.04,1.05,0.10,45.01
1,-0.02,1.05,0.10,44.51
1,0.00,0.94,0.13,44.51
1,0.05,1.06,0.15,42.14
1,-0.07,1.06,0.14,38.83
1,-0.01,0.96,0.14,38.83
1,-0.00,0.98,0.14,35.00
1,-0.00,0.98,0.14,45.82
1,-0.05,1.08,0.14,45.61
1,-0.01,0.92,0.14,44.04
1,-0.01,0.88,0.17,43.04
1,-0.06,1.01,0.17,42.88
1,-0.01,1.02,0.11,42.88
1,-0.06,0.95,0.11,40.47
1,0.00,0.95,0.07,39.46
1,-0.06,1.08,0.13,39.46
1,-0.01,0.94,0.10,43.31
1,-0.01,0.94,0.12,48.24
1,-0.03,1.00,0.12,48.24
1,-0.02,1.07,0.09,42.23
1,-0.02,1.12,0.12,42.57
1,-0.01,0.94,0.12,43.43
1,-0.09,1.04,0.15,43.43
1,-0.09,0.98,0.11,44.21
1,-0.02,0.98,0.07,41.38
1,-0.00,0.96,0.13,41.38
1,-0.01,1.08,0.14,44.35
1,-0.07,1.08,0.14,43.57
1,-0.01,0.92,0.14,43.57
1,-0.05,1.01,0.15,38.55
1,-0.05,1.03,0.11,44.67
1,-0.01,1.03,0.11,44.91
1,0.01,0.95,0.13,40.99
1,0.01,1.06,0.14,43.76
1,-0.07,1.06,0.14,42.98
1,-0.02,0.95,0.11,42.98
1,-0.02,0.98,0.12,45.49
1,-0.02,0.98,0.11,46.19
1,-0.04,1.08,0.11,46.19
1,-0.01,0.94,0.10,40.85
1,-0.01,0.92,0.14,47.06
1,-0.08,1.04,0.14,47.49
1,-0.01,1.00,0.09,45.14
1,-0.01,0.96,0.12,42.81
1,0.00,0.96,0.12,45.65
1,-0.06,1.08,0.13,45.65
1,-0.01,0.93,0.12,45.11
1,-0.01,0.93,0.09,46.64
1,-0.04,1.00,0.15,46.64
1,-0.02,1.03,0.12,47.84
1,-0.02,1.03,0.13,44.31
1,-0.00,0.94,0.13,44.50
1,-0.09,1.05,0.15,44.50
1,-0.09,1.03,0.12,41.16
1,-0.02,0.97,0.12,49.48
1,-0.01,0.97,0.13,49.48
1,-0.01,1.07,0.12,42.30
1,-0.05,1.07,0.07,41.26
1,-0.01,0.92,0.13,41.26
1,-0.06,1.03,0.14,42.44
1,-0.06,1.03,0.10,47.45
1,-0.01,1.01,0.10,47.45
1,0.01,0.96,0.11,41.82
1,0.01,0.95,0.14,46.78
1,-0.06,1.07,0.14,46.40
1,-0.03,0.93,0.11,42.48
1,-0.03,0.99,0.14,39.48
1,-0.03,0.99,0.18,42.84
1,-0.03,1.06,0.12,42.84
1,-0.05,0.93,0.13,40.92
1,0.01,0.93,0.17,43.28
1,-0.09,1.05,0.17,43.28
1,-0.00,0.97,0.12,44.56
1,-0.00,0.97,0.13,40.53
1,-0.00,0.97,0.13,40.49
1,-0.05,1.08,0.14,42.05
1,-0.05,0.92,0.13,46.90
1,-0.02,0.92,0.13,44.73
1,-0.06,1.02,0.14,44.73
1,-0.01,1.02,0.10,42.28
1,-0.01,1.02,0.11,40.37
1,0.01,0.96,0.11,40.37
1,-0.06,1.07,0.14,39.68
1,-0.06,1.07,0.11,44.76
1,-0.02,0.95,0.11,44.66
1,-0.03,0.99,0.13,45.45
1,-0.03,1.07,0.11,42.67
1,-0.02,1.07,0.11,40.54
1,-0.01,0.93,0.12,40.54
1,-0.01,1.04,0.15,40.48
1,-0.07,1.04,0.17,41.41
1,-0.01,0.98,0.11,41.41
1,0.01,0.97,0.13,40.70
1,0.01,0.97,0.14,45.05
1,-0.05,1.07,0.14,44.91
1,-0.02,0.94,0.12,46.47
1,-0.02,0.94,0.14,42.91
1,-0.05,1.00,0.14,46.84
1,-0.02,1.04,0.10,46.84
1,-0.05,0.94,0.12,44.54
1,0.01,0.94,0.08,44.81
1,-0.07,1.07,0.14,44.81
1,-0.02,0.96,0.11,41.82
1,-0.02,0.96,0.12,41.87
1,-0.01,0.98,0.12,41.87
1,-0.03,1.08,0.11,44.15
1,-0.03,1.06,0.12,48.68
1,-0.01,0.94,0.12,46.76
1,-0.07,1.03,0.14,46.76
1,-0.07,1.00,0.10,43.26
1,-0.01,1.00,0.07,41.75
1,-0.00,0.96,0.13,41.75
1,-0.00,1.08,0.13,40.24
1,-0.06,1.08,0.12,41.84
1,-0.02,0.93,0.12,41.84
1,-0.04,1.00,0.14,41.12
1,-0.04,0.98,0.12,42.22
1,-0.02,1.04,0.12,41.54
1,0.01,0.94,0.13,46.24
1,0.01,1.05,0.15,44.14
1,-0.08,1.05,0.15,46.36
1,-0.02,0.96,0.12,46.36
1,-0.00,0.99,0.13,49.51
1,-0.00,0.99,0.13,47.03
1,-0.04,1.07,0.13,47.03
1,-0.01,0.94,0.12,41.76
1,-0.01,0.95,0.15,40.67
1,-0.07,1.01,0.15,40.68
1,-0.01,1.02,0.10,43.03
1,-0.01,0.96,0.11,45.54
1,0.02,0.96,0.11,44.56
1,-0.07,1.08,0.13,44.56
1,-0.07,0.94,0.13,45.91
1,-0.01,0.94,0.14,41.20
1,-0.03,1.00,0.14,41.20
1,-0.02,1.05,0.11,44.24
1,-0.02,1.05,0.12,43.51
1,0.00,0.94,0.12,43.75
2,-0.06,1.01,0.17,43.75
2,-0.01,1.02,0.11,43.75
2,0.01,0.95,0.12,41.53
2,0.01,0.95,0.14,42.52
2,-0.07,1.07,0.14,42.24
2,-0.02,0.95,0.10,42.24
2,-0.02,0.99,0.14,40.99
2,-0.03,0.99,0.14,44.04
2,-0.03,1.07,0.13,44.04
2,-0.00,0.94,0.12,39.28
2,-0.00,0.94,0.10,42.25
2,-0.07,1.03,0.16,42.25
2,-0.01,1.00,0.11,42.55
2,-0.01,1.00,0.12,43.33
2,0.01,0.96,0.12,43.08
2,-0.06,1.08,0.14,43.08
2,-0.06,1.12,0.12,42.23
2,-0.01,0.93,0.12,45.38
2,-0.05,1.00,0.13,45.38
2,-0.01,1.04,0.12,41.44
2,-0.01,1.04,0.12,43.33
2,0.01,0.95,0.12,43.33
2,-0.07,1.06,0.15,40.39
2,-0.07,1.06,0.11,42.90
2,-0.03,0.96,0.11,42.90
2,-0.02,0.98,0.12,42.55
2,-0.02,0.94,0.12,45.29
2,-0.05,1.07,0.12,45.18
2,-0.01,0.93,0.12,44.40
2,-0.01,1.02,0.15,48.18
2,-0.07,1.02,0.18,39.64
2,-0.01,1.00,0.11,39.64
2,-0.06,0.95,0.12,38.87
2,0.00,0.95,0.14,40.47
2,-0.07,1.08,0.14,40.47
2,-0.01,0.94,0.12,45.39
2,-0.01,0.94,0.13,42.71
2,-0.03,1.00,0.13,42.25
2,-0.02,1.04,0.12,43.82
2,-0.02,0.94,0.13,45.75
2,-0.01,0.94,0.13,46.13
2,-0.07,1.05,0.16,46.13
2,-0.08,0.97,0.11,42.36
2,-0.02,0.97,0.12,39.04
2,-0.01,0.97,0.12,39.04
2,-0.04,1.08,0.13,45.95
2,-0.04,1.08,0.13,46.34
2,-0.01,0.93,0.13,46.24
2,-0.06,1.02,0.15,46.24
2,-0.06,1.02,0.10,46.28
2,-0.01,1.02,0.10,45.81
2,0.01,0.96,0.13,45.81
2,0.06,1.07,0.15,44.99
2,-0.07,1.07,0.17,42.90
2,-0.02,0.94,0.11,42.90
2,-0.02,1.00,0.13,40.89
2,-0.02,1.00,0.12,43.76
2,-0.02,1.06,0.12,43.41
2,0.01,0.94,0.11,40.28
2,0.01,0.98,0.15,39.46
2,-0.08,1.04,0.15,44.52
2,-0.01,0.98,0.11,44.52
2,-0.01,0.97,0.13,44.82
2,0.00,0.97,0.19,43.96
2,-0.05,1.07,0.12,43.96
2,-0.02,0.94,0.11,43.09
2,-0.02,0.94,0.14,38.00
2,-0.05,1.01,0.14,38.00
2,-0.01,1.04,0.12,41.43
2,-0.01,1.02,0.12,41.39
2,-0.00,0.95,0.12,41.04
2,-0.07,1.06,0.15,44.17
2,-0.07,0.95,0.10,43.21
2,-0.02,0.95,0.12,43.43
2,-0.02,0.97,0.12,43.43
2,-0.03,1.07,0.12,43.07
2,-0.03,1.07,0.12,43.12
2,-0.02,0.93,0.12,43.12
2,-0.08,1.03,0.15,44.97
2,-0.08,1.05,0.12,44.90
2,-0.01,0.99,0.12,45.00
2,0.01,0.97,0.12,42.65
2,0.01,1.07,0.14,46.05
2,-0.06,1.07,0.14,41.97
2,-0.02,0.95,0.12,41.97
2,-0.04,1.00,0.13,43.33
2,-0.04,1.00,0.16,44.19
2,-0.01,1.05,0.10,44.19
2,0.01,0.95,0.12,42.32
2,0.01,0.95,0.15,40.89
2,-0.07,1.05,0.15,40.94
2,-0.02,0.95,0.12,42.51
2,-0.02,0.98,0.12,42.23
2,-0.01,0.98,0.12,42.49
2,-0.04,1.08,0.13,42.49
2,-0.01,0.94,0.12,43.61
2,-0.01,0.94,0.08,46.63
2,-0.07,1.03,0.14,46.63
2,-0.00,1.01,0.10,40.11
2,-0.00,1.01,0.12,44.46
2,0.00,0.96,0.12,43.90
2,-0.06,1.07,0.14,39.20
2,-0.06,1.07,0.12,42.99
2,-0.02,0.94,0.12,41.16
2,-0.03,0.99,0.14,41.16
2,-0.03,1.05,0.12,41.80
2,-0.02,1.05,0.12,44.95
2,-0.01,0.94,0.12,44.95
2,-0.01,1.05,0.16,43.79
2,-0.07,1.05,0.11,43.75
2,-0.02,0.98,0.11,43.75
2,-0.00,0.98,0.13,45.05
2,-0.00,0.94,0.13,44.24
2,-0.05,1.07,0.13,44.00
2,-0.01,0.94,0.13,41.65
2,-0.01,1.02,0.15,42.08
2,-0.05,1.02,0.17,45.56
2,-0.01,1.03,0.11,45.56
2,-0.05,0.96,0.11,38.84
2,0.01,0.96,0.15,43.32
2,-0.07,1.06,0.15,43.32
2,-0.01,0.96,0.11,42.15
2,-0.01,0.99,0.14,43.62
2,-0.03,0.99,0.14,43.77
2,-0.02,1.06,0.11,41.42
2,-0.02,0.94,0.13,40.53
2,-0.00,0.94,0.13,39.89
2,-0.07,1.04,0.15,39.89
2,-0.08,0.99,0.10,47.28
2,-0.01,0.99,0.11,44.90
2,0.00,0.97,0.11,44.90
2,-0.06,1.08,0.15,50.32
2,-0.06,1.08,0.12,40.40
2,-0.01,0.93,0.12,40.53
2,-0.05,1.01,0.15,40.53
2,-0.05,1.04,0.10,41.97
2,-0.02,1.04,0.10,43.42
2,0.00,0.95,0.14,43.42
2,0.05,1.05,0.15,41.98
2,-0.08,1.05,0.13,45.03
2,-0.02,0.95,0.13,45.03
2,-0.02,0.98,0.12,40.95
2,-0.02,0.98,0.13,42.79
2,-0.03,1.07,0.13,42.79
2,-0.01,0.94,0.12,40.69
2,-0.01,0.90,0.14,42.54
2,-0.08,1.02,0.14,48.84
2,-0.02,1.00,0.11,48.84
2,-0.02,0.97,0.11,43.09
2,0.02,0.97,0.08,46.20
2,-0.06,1.08,0.14,46.20
2,-0.03,0.95,0.12,43.61
2,-0.03,0.95,0.13,44.50
2,-0.04,1.00,0.13,44.50
2,-0.02,1.05,0.12,42.20
2,-0.02,1.02,0.12,43.15
2,0.01,0.96,0.12,43.49
2,-0.07,1.05,0.15,44.27
2,-0.07,0.97,0.11,38.83
2,-0.01,0.97,0.11,45.29
2,-0.00,0.98,0.13,45.29
2,-0.05,1.07,0.13,46.05
2,-0.05,1.07,0.13,40.91
2,-0.02,0.92,0.13,40.91
2,-0.06,1.02,0.15,43.75
2,-0.06,1.02,0.11,44.83
2,-0.01,1.02,0.11,45.08
2,0.00,0.96,0.13,46.64
2,0.00,1.07,0.15,43.99
2,-0.07,1.07,0.15,43.03
2,-0.02,0.96,0.12,43.03
2,-0.04,0.99,0.14,42.80
2,-0.04,0.99,0.18,43.12
2,-0.03,1.06,0.12,43.12
2,-0.01,0.94,0.12,43.78
2,-0.01,0.94,0.15,48.64
2,-0.07,1.04,0.15,49.03
2,-0.02,0.98,0.11,49.81
2,-0.02,0.97,0.12,50.57
2,0.00,0.97,0.12,45.43
2,-0.05,1.07,0.14,45.43
2,-0.01,0.94,0.13,45.08
2,-0.01,0.94,0.15,42.33
2,-0.05,1.01,0.15,42.33
2,-0.02,1.02,0.11,46.11
2,-0.02,1.02,0.13,45.26
2,0.01,0.95,0.13,45.26
2,-0.07,1.06,0.15,39.48
2,-0.07,1.03,0.11,44.70
2,-0.02,0.96,0.11,48.73
2,-0.03,0.98,0.12,48.73
2,-0.03,1.07,0.12,43.06
2,-0.03,1.07,0.12,45.13
2,-0.01,0.94,0.12,45.13
2,-0.02,1.03,0.14,41.64
2,-0.08,1.03,0.10,37.10
2,-0.02,0.98,0.10,37.10
2,0.00,0.97,0.13,41.51
2,0.00,0.95,0.14,41.66
2,-0.05,1.07,0.14,41.57
2,-0.01,0.94,0.13,47.05
2,-0.01,1.02,0.16,41.42
2,-0.05,1.02,0.16,45.52
2,-0.02,1.05,0.10,45.52
2,-0.00,0.96,0.13,45.98
2,-0.00,0.96,0.15,44.36
2,-0.07,1.05,0.15,44.36
2,-0.01,0.96,0.12,41.07
2,-0.01,0.98,0.13,42.48
2,-0.01,0.98,0.13,42.87
2,-0.04,1.07,0.12,42.08
2,-0.04,0.94,0.13,43.84
2,-0.00,0.94,0.13,48.08
2,-0.06,1.03,0.14,48.08
2,-0.08,1.00,0.11,43.18
2,-0.02,1.00,0.12,41.96
2,0.01,0.96,0.12,41.96
2,-0.06,1.06,0.15,43.70
2,-0.06,1.06,0.12,40.42
2,-0.02,0.95,0.12,40.62
2,-0.03,0.99,0.15,42.97
2,-0.03,1.00,0.11,43.47
2,-0.03,1.06,0.11,45.39
2,0.00,0.95,0.12,45.39
2,0.00,1.05,0.15,45.44
2,-0.08,1.05,0.19,45.44
2,-0.01,0.98,0.12,45.44
2,-0.01,0.97,0.12,42.73
2,-0.01,0.97,0.13,43.53
2,-0.04,1.07,0.13,43.53
2,-0.01,0.93,0.12,40.40
2,-0.01,0.88,0.14,39.68
3,-0.03,1.06,0.11,42.56
3,-0.03,1.06,0.13,42.20
3,-0.01,0.94,0.13,41.78
3,-0.08,1.04,0.16,50.40
3,-0.08,1.05,0.11,42.89
3,-0.02,0.99,0.11,44.80
3,0.01,0.98,0.12,44.80
3,0.01,1.07,0.14,42.22
3,-0.05,1.07,0.13,39.53
3,-0.01,0.93,0.13,39.53
3,-0.06,1.01,0.14,47.28
3,-0.06,1.01,0.11,41.92
3,-0.01,1.03,0.11,41.92
3,0.01,0.95,0.12,41.36
3,0.01,0.94,0.15,42.40
3,-0.07,1.07,0.15,42.73
3,-0.02,0.95,0.11,41.94
3,-0.02,0.99,0.12,42.66
3,-0.02,0.99,0.12,42.13
3,-0.05,1.06,0.12,42.13
3,-0.01,0.95,0.12,39.16
3,-0.01,0.95,0.15,41.58
3,-0.08,1.03,0.15,41.58
3,-0.02,1.00,0.10,39.22
3,-0.02,1.03,0.12,43.55
3,0.01,0.97,0.12,43.22
3,-0.06,1.06,0.13,37.74
3,-0.06,0.94,0.11,45.20
3,-0.02,0.94,0.11,49.08
3,-0.05,0.99,0.13,49.08
3,-0.02,1.04,0.12,43.53
3,-0.02,1.04,0.11,43.70
3,0.00,0.95,0.11,43.70
3,-0.08,1.04,0.14,48.15
3,-0.08,1.04,0.11,47.36
3,-0.02,0.96,0.11,47.50
3,-0.01,0.99,0.13,41.24
3,-0.01,1.07,0.13,37.98
3,-0.04,1.07,0.13,39.99
3,-0.02,0.94,0.12,39.99
3,-0.00,1.02,0.14,43.04
3,-0.06,1.02,0.16,39.70
3,-0.01,1.01,0.10,39.70
3,0.00,0.96,0.12,43.57
3,0.00,0.96,0.14,49.62
3,-0.06,1.07,0.14,49.98
3,-0.02,0.94,0.12,47.63
3,-0.02,1.00,0.13,43.75
3,-0.03,1.00,0.13,45.36
3,-0.02,1.05,0.10,45.36
3,-0.02,0.95,0.13,41.54
3,-0.00,0.95,0.15,42.91
3,-0.07,1.05,0.15,42.91
3,-0.02,0.98,0.11,43.28
3,-0.02,0.98,0.12,41.72
3,0.00,0.98,0.12,41.72
3,-0.05,1.08,0.13,41.37
3,-0.05,1.06,0.12,44.13
3,-0.02,0.94,0.12,44.12
3,-0.06,1.01,0.15,45.69
3,-0.06,1.02,0.11,44.99
3,-0.01,1.02,0.11,44.89
3,0.01,0.96,0.13,44.89
3,0.05,1.06,0.14,46.23
3,-0.07,1.06,0.12,43.46
3,-0.02,0.95,0.12,43.46
3,-0.03,0.98,0.12,47.41
3,-0.03,0.99,0.12,45.31
3,-0.03,1.06,0.12,45.21
3,-0.00,0.94,0.12,38.16
3,-0.00,1.03,0.15,44.58
3,-0.07,1.03,0.15,47.24
3,-0.02,1.00,0.11,47.24
3,-0.00,0.97,0.12,47.98
3,-0.00,0.97,0.08,44.35
3,-0.06,1.07,0.14,44.35
3,-0.01,0.94,0.12,42.97
3,-0.01,0.94,0.16,46.51
3,-0.05,1.00,0.16,46.63
3,-0.02,1.04,0.11,45.06
3,-0.02,0.96,0.13,42.96
3,-0.01,0.96,0.13,39.94
3,-0.07,1.05,0.15,39.94
3,-0.08,0.96,0.12,40.19
3,-0.02,0.96,0.06,38.81
3,-0.01,0.98,0.13,38.81
3,-0.04,1.06,0.13,42.66
3,-0.04,1.06,0.13,36.64
3,-0.01,0.94,0.13,36.60
3,-0.07,1.02,0.15,42.08
3,-0.07,1.00,0.11,39.75
3,-0.02,1.00,0.11,44.04
3,0.01,0.97,0.12,44.04
3,0.01,1.06,0.14,42.54
3,-0.06,1.06,0.18,43.94
3,-0.03,0.95,0.12,43.94
3,-0.04,1.00,0.14,46.05
3,-0.04,1.00,0.12,43.85
3,-0.02,1.05,0.12,43.85
3,-0.00,0.95,0.13,42.50
3,-0.00,0.99,0.14,36.56
3,-0.07,1.05,0.14,36.04
3,-0.02,0.97,0.11,43.87
3,-0.02,0.98,0.13,43.39
3,-0.00,0.98,0.13,45.31
3,-0.04,1.07,0.13,45.31
3,-0.02,0.94,0.12,45.34
3,-0.02,0.94,0.15,46.86
3,-0.06,1.02,0.15,46.86
3,-0.01,1.02,0.11,44.22
3,-0.01,1.03,0.12,42.93
3,0.01,0.97,0.12,42.74
3,-0.07,1.06,0.14,43.53
3,-0.07,0.95,0.12,40.58
3,-0.03,0.95,0.12,42.27
3,-0.02,0.99,0.13,42.27
3,-0.02,1.05,0.11,47.88
3,-0.02,1.05,0.12,44.74
3,-0.01,0.94,0.12,44.74
3,-0.07,1.04,0.16,41.97
3,-0.07,1.04,0.12,44.93
3,-0.01,0.98,0.12,45.23
3,0.00,0.98,0.13,42.10
3,0.00,0.95,0.14,42.12
3,-0.04,1.07,0.14,43.50
3,-0.01,0.94,0.12,43.50
3,-0.00,1.01,0.14,47.11
3,-0.06,1.01,0.17,46.43
3,-0.02,1.03,0.11,46.43
3,0.00,0.96,0.11,43.03
3,0.00,0.96,0.14,40.30
3,-0.07,1.05,0.14,40.30
3,-0.02,0.96,0.12,46.53
3,-0.02,1.00,0.14,45.04
3,-0.02,1.00,0.14,43.63
3,-0.03,1.06,0.12,43.63
3,-0.03,0.94,0.13,45.31
3,-0.00,0.94,0.16,39.30
3,-0.07,1.03,0.16,39.30
3,-0.07,0.99,0.11,38.41
3,-0.01,0.99,0.13,48.38
3,0.01,0.97,0.13,48.38
3,-0.07,1.07,0.13,45.58
3,-0.07,1.08,0.13,42.93
3,-0.03,0.95,0.13,42.56
3,-0.04,1.01,0.14,42.56
3,-0.04,1.04,0.11,42.90
3,-0.01,1.04,0.11,44.73
3,0.00,0.95,0.12,44.73
3,0.06,1.05,0.15,39.93
3,-0.07,1.05,0.13,44.34
3,-0.02,0.97,0.13,44.34
3,-0.01,0.99,0.13,46.38
3,-0.01,1.00,0.13,46.75
3,-0.04,1.06,0.13,46.72
3,-0.02,0.94,0.13,42.02
3,-0.02,1.02,0.14,40.28
3,-0.06,1.02,0.14,41.68
3,-0.01,1.01,0.11,41.68
3,-0.05,0.97,0.12,42.97
3,0.01,0.97,0.08,44.20
3,-0.07,1.06,0.14,44.20
3,-0.02,0.95,0.12,46.13
3,-0.02,0.95,0.13,42.69
3,-0.03,1.00,0.13,42.37
3,-0.02,1.05,0.13,46.29
3,-0.02,1.01,0.13,40.28
3,0.00,0.94,0.13,40.38
3,-0.08,1.04,0.15,40.38
3,-0.08,0.99,0.10,43.00
3,-0.01,0.99,0.06,44.38
3,-0.00,0.98,0.13,44.38
3,-0.05,1.06,0.13,43.83
3,-0.05,1.06,0.12,41.80
3,-0.02,0.95,0.12,41.80
3,-0.07,1.01,0.14,46.20
3,-0.07,1.02,0.12,43.08
3,-0.02,1.02,0.12,43.24
3,0.00,0.96,0.12,39.33
3,0.00,1.05,0.14,44.65
3,-0.07,1.05,0.17,45.05
3,-0.01,0.96,0.11,45.05
3,-0.03,0.99,0.12,38.84
3,-0.03,0.99,0.12,41.98
3,-0.03,1.06,0.12,41.98
3,-0.01,0.94,0.12,43.45
3,-0.01,0.97,0.15,42.30
3,-0.07,1.03,0.15,42.74
3,-0.02,0.99,0.11,40.39
3,-0.02,0.97,0.12,42.21
3,-0.01,0.97,0.12,45.45
3,-0.06,1.06,0.13,45.45
3,-0.02,0.94,0.11,43.09
3,-0.02,0.94,0.07,42.17
3,-0.05,1.00,0.13,42.17
3,-0.01,1.04,0.12,42.09
3,-0.01,1.02,0.12,38.15
3,0.00,0.96,0.12,37.63
3,-0.08,1.05,0.15,42.33
3,-0.08,0.96,0.12,43.00
3,-0.02,0.96,0.12,40.63
3,-0.02,0.99,0.12,40.63
3,-0.03,1.06,0.13,38.18
3,-0.03,1.06,0.18,37.78
3,-0.02,0.94,0.12,37.78
3,-0.07,1.03,0.14,43.30
3,-0.07,1.03,0.10,39.64
3,-0.01,1.00,0.10,39.29
3,-0.00,0.97,0.11,43.99
3,-0.00,0.94,0.14,49.15
3,-0.06,1.07,0.14,43.50
3,-0.02,0.95,0.12,43.50
3,-0.02,1.00,0.13,44.90
3,-0.04,1.00,0.18,48.20
3,-0.03,1.04,0.11,48.20
3,0.01,0.94,0.12,48.40
3,0.01,0.94,0.15,42.95
3,-0.07,1.03,0.15,42.95
3,-0.02,0.97,0.11,43.80
3,-0.02,0.98,0.12,47.60
3,-0.01,0.98,0.12,47.09
3,-0.04,1.07,0.14,47.09
3,-0.04,0.94,0.12,41.12
3,-0.02,0.94,0.08,41.59
3,-0.06,1.01,0.15,41.59
3,-0.08,1.01,0.11,41.20
3,-0.01,1.01,0.12,42.68
3,0.00,0.97,0.12,42.68
3,-0.06,1.06,0.14,44.08
3,-0.06,1.01,0.11,47.04
3,-0.03,0.95,0.11,46.97
3,-0.03,1.00,0.13,39.14
3,-0.03,1.05,0.12,41.11
4,-0.02,0.94,0.12,44.17
4,-0.02,0.94,0.15,44.37
4,-0.05,1.01,0.15,42.23
4,-0.02,1.03,0.11,42.23
4,-0.02,0.96,0.11,42.60
4,0.01,0.96,0.08,44.22
4,-0.07,1.06,0.14,44.22
4,-0.08,0.96,0.11,42.13
4,-0.01,0.96,0.13,40.21
4,-0.02,0.99,0.13,40.21
4,-0.03,1.05,0.13,42.50
4,-0.03,1.01,0.12,42.72
4,-0.01,0.95,0.12,42.74
4,-0.08,1.03,0.16,44.31
4,-0.08,0.99,0.11,48.34
4,-0.02,0.99,0.11,40.92
4,0.01,0.98,0.12,40.92
4,0.01,1.06,0.14,44.21
4,-0.05,1.06,0.12,44.43
4,-0.02,0.94,0.12,44.43
4,-0.05,1.00,0.13,42.07
4,-0.05,0.97,0.12,42.27
4,-0.02,1.03,0.12,42.82
4,-0.01,0.96,0.12,48.30
4,-0.01,1.04,0.15,44.92
4,-0.07,1.04,0.15,48.90
4,-0.03,0.97,0.12,48.90
4,-0.02,0.99,0.13,38.75
4,-0.02,0.99,0.13,41.14
4,-0.03,1.06,0.13,41.14
4,-0.01,0.93,0.13,39.36
4,-0.01,0.93,0.14,44.07
4,-0.05,1.02,0.14,44.09
4,-0.01,1.01,0.09,43.30
4,-0.01,1.03,0.12,43.11
4,0.01,0.97,0.12,47.41
4,-0.06,1.06,0.14,47.41
4,-0.02,0.95,0.12,40.62
4,-0.02,0.95,0.08,43.65
4,-0.04,1.00,0.14,43.65
4,-0.02,1.05,0.11,42.95
4,-0.02,1.05,0.13,42.01
4,-0.00,0.94,0.13,42.01
4,-0.08,1.04,0.14,43.61
4,-0.08,1.05,0.12,45.43
4,-0.02,0.99,0.12,46.90
4,-0.01,0.99,0.12,46.90
4,-0.01,1.06,0.12,44.47
4,-0.04,1.06,0.07,44.99
4,-0.02,0.94,0.13,44.99
4,-0.00,1.01,0.15,45.71
4,-0.06,1.01,0.11,43.45
4,-0.01,1.02,0.11,43.45
4,0.01,0.97,0.13,43.76
4,0.01,0.99,0.15,41.26
4,-0.06,1.05,0.15,40.78
4,-0.02,0.95,0.12,41.57
4,-0.02,0.99,0.13,42.11
4,-0.03,0.99,0.13,42.69
4,-0.03,1.06,0.11,42.69
4,-0.00,0.95,0.12,45.13
4,-0.00,0.95,0.09,45.25
4,-0.07,1.02,0.15,45.25
4,-0.02,0.99,0.11,43.46
4,-0.02,0.98,0.12,41.01
4,0.01,0.98,0.12,41.29
4,-0.05,1.05,0.14,45.99
4,-0.05,0.94,0.12,42.37
4,-0.02,0.94,0.12,40.91
4,-0.04,1.00,0.13,40.91
4,-0.02,1.02,0.11,42.11
4,-0.02,1.02,0.12,44.52
4,0.01,0.96,0.12,44.52
4,-0.07,1.05,0.15,44.11
4,-0.07,1.05,0.11,46.20
4,-0.03,0.96,0.11,46.50
4,-0.02,0.99,0.13,44.15
4,-0.02,1.00,0.11,46.85
4,-0.04,1.06,0.11,47.91
4,-0.00,0.96,0.13,47.91
4,-0.06,1.02,0.15,42.80
4,-0.06,1.02,0.18,47.79
4,-0.02,1.00,0.12,47.79
4,0.01,0.98,0.11,47.13
4,0.01,0.98,0.14,45.89
4,-0.06,1.07,0.14,45.89
4,-0.02,0.95,0.11,39.81
4,-0.02,0.94,0.14,42.72
4,-0.04,1.00,0.14,42.29
4,-0.02,1.04,0.11,36.02
4,-0.02,0.95,0.12,39.02
4,-0.00,0.95,0.08,40.79
4,-0.07,1.04,0.14,40.79
4,-0.08,0.98,0.11,42.33
4,-0.02,0.98,0.13,47.37
4,-0.01,0.98,0.13,47.37
4,-0.04,1.06,0.13,47.20
4,-0.04,1.07,0.12,43.82
4,-0.02,0.95,0.12,43.99
4,-0.06,1.02,0.14,43.21
4,-0.06,1.01,0.11,43.38
4,-0.02,1.01,0.11,39.69
4,-0.00,0.96,0.13,39.69
4,-0.06,1.06,0.14,45.10
4,-0.06,1.06,0.19,45.14
4,-0.03,0.95,0.12,45.14
4,-0.03,1.00,0.14,42.37
4,-0.03,1.04,0.11,45.97
4,-0.02,1.04,0.11,45.90
4,-0.00,0.95,0.12,39.63
4,-0.00,1.03,0.15,44.87
4,-0.07,1.03,0.15,43.16
4,-0.02,0.99,0.11,43.16
4,-0.00,0.98,0.13,40.65
4,-0.00,0.98,0.14,47.09
4,-0.04,1.06,0.14,47.09
4,-0.02,0.94,0.13,42.86
4,-0.02,0.94,0.14,41.25
4,-0.06,1.01,0.14,40.92
4,-0.02,1.02,0.11,39.35
4,-0.02,1.02,0.12,42.69
4,0.01,0.96,0.12,45.13
4,-0.06,1.06,0.14,45.13
4,-0.06,0.96,0.12,45.67
4,-0.03,0.96,0.07,45.14
4,-0.03,1.00,0.13,45.14
4,-0.03,1.06,0.12,38.90
4,-0.03,1.06,0.12,42.54
4,-0.01,0.96,0.12,42.54
4,-0.06,1.02,0.15,40.73
4,-0.06,1.05,0.11,42.44
4,-0.02,0.99,0.11,42.89
4,-0.00,0.98,0.14,43.68
4,-0.00,1.06,0.13,42.29
4,-0.06,1.06,0.18,39.54
4,-0.03,0.95,0.12,39.54
4,-0.05,1.01,0.14,42.07
4,-0.05,1.01,0.12,45.09
4,-0.02,1.03,0.12,45.09
4,0.00,0.97,0.12,44.02
4,0.00,0.98,0.14,44.47
4,-0.08,1.04,0.14,44.16
4,-0.03,0.97,0.11,42.59
4,-0.03,0.99,0.14,43.71
4,-0.02,0.99,0.14,42.49
4,-0.04,1.06,0.12,42.49
4,-0.02,0.95,0.13,49.22
4,-0.02,0.95,0.15,44.41
4,-0.06,1.02,0.15,44.41
4,-0.00,1.01,0.11,44.57
4,-0.00,1.01,0.12,46.40
4,0.01,0.97,0.12,46.25
4,-0.06,1.05,0.14,42.33
4,-0.06,0.96,0.12,42.48
4,-0.02,0.96,0.12,45.54
4,-0.04,1.00,0.13,45.54
4,-0.03,1.03,0.12,38.28
4,-0.03,1.03,0.12,40.22
4,0.00,0.95,0.12,40.22
4,-0.07,1.04,0.15,40.85
4,-0.07,1.04,0.11,44.08
4,-0.02,0.97,0.11,44.36
4,-0.01,0.98,0.14,45.14
4,-0.01,1.00,0.13,44.96
4,-0.03,1.06,0.13,42.50
4,-0.02,0.95,0.11,42.50
4,-0.02,1.02,0.13,41.66
4,-0.07,1.02,0.17,40.17
4,-0.02,1.01,0.11,40.17
4,-0.06,0.97,0.11,48.38
4,0.00,0.97,0.15,42.50
4,-0.06,1.05,0.15,42.50
4,-0.03,0.96,0.12,46.92
4,-0.03,1.00,0.13,42.15
4,-0.04,1.00,0.13,41.68
4,-0.03,1.05,0.11,47.17
4,-0.03,0.95,0.13,44.52
4,-0.00,0.95,0.13,41.99
4,-0.07,1.03,0.14,41.99
4,-0.07,0.99,0.11,45.11
4,-0.01,0.99,0.14,42.52
4,-0.00,0.98,0.14,42.52
4,-0.04,1.05,0.14,44.45
4,-0.04,1.01,0.12,39.13
4,-0.01,0.95,0.12,39.65
4,-0.06,1.01,0.14,40.43
4,-0.06,1.02,0.11,42.51
4,-0.02,1.02,0.11,46.81
4,0.00,0.96,0.14,46.81
4,0.06,1.05,0.15,40.99
4,-0.06,1.05,0.18,47.74
4,-0.03,0.96,0.12,47.74
4,-0.02,0.99,0.13,44.75
4,-0.02,0.99,0.13,43.68
4,-0.03,1.05,0.13,43.44
4,-0.01,0.94,0.11,43.44
4,-0.01,0.96,0.14,45.64
4,-0.07,1.03,0.14,46.30
4,-0.02,0.99,0.13,46.30
4,-0.00,0.97,0.12,43.36
4,-0.00,0.97,0.08,40.94
4,-0.05,1.06,0.14,40.94
4,-0.03,0.95,0.12,38.80
4,-0.03,0.95,0.14,45.24
4,-0.05,1.00,0.14,45.24
4,-0.03,1.03,0.11,42.19
4,-0.03,1.03,0.12,43.38
4,-0.01,0.97,0.12,40.89
4,-0.07,1.05,0.15,40.89
4,-0.07,0.98,0.11,45.21
4,-0.02,0.98,0.12,42.91
4,-0.01,0.99,0.12,42.91
4,-0.04,1.06,0.12,45.86
4,-0.04,1.06,0.13,42.46
4,-0.02,0.94,0.13,42.46
4,-0.06,1.01,0.15,42.77
4,-0.06,1.01,0.11,43.84
4,-0.01,1.01,0.11,44.22
4,-0.01,0.97,0.12,45.00
4,-0.01,1.05,0.15,43.23
4,-0.07,1.05,0.15,39.10
4,-0.02,0.95,0.12,39.10
4,-0.03,0.99,0.13,46.11
4,-0.03,0.99,0.18,43.54
4,-0.02,1.05,0.12,43.54
4,0.00,0.95,0.12,40.16
4,0.00,0.97,0.15,42.48
4,-0.06,1.04,0.15,42.99
4,-0.03,0.99,0.12,43.78
4,-0.03,0.99,0.13,43.16
4,-0.01,0.99,0.13,42.22
4,-0.05,1.06,0.13,42.22
4,-0.02,0.94,0.12,42.79
5,-0.03,0.99,0.14,42.53
5,-0.03,1.04,0.13,43.44
5,-0.02,1.04,0.13,43.90
5,-0.01,0.95,0.13,43.90
5,-0.00,1.03,0.15,41.97
5,-0.07,1.03,0.11,47.88
5,-0.02,1.00,0.11,47.88
5,0.00,0.98,0.11,43.66
5,0.00,0.94,0.13,43.68
5,-0.06,1.06,0.13,43.60
5,-0.02,0.95,0.11,39.69
5,-0.02,1.01,0.13,42.48
5,-0.04,1.01,0.13,42.24
5,-0.01,1.04,0.11,42.24
5,-0.01,0.96,0.13,42.81
5,-0.01,0.96,0.14,44.68
5,-0.06,1.04,0.14,44.68
5,-0.02,0.97,0.11,42.62
5,-0.02,0.97,0.13,42.79
5,-0.02,0.99,0.13,42.93
5,-0.03,1.06,0.13,42.93
5,-0.03,1.01,0.13,41.94
5,0.00,0.95,0.13,39.16
5,-0.05,1.03,0.15,39.16
5,-0.02,1.00,0.11,42.13
5,-0.02,1.00,0.12,42.13
5,-0.00,0.97,0.12,42.13
5,-0.05,1.06,0.14,42.86
5,-0.05,1.06,0.13,42.48
5,-0.02,0.95,0.13,42.48
5,-0.04,1.00,0.14,40.14
5,-0.04,1.04,0.11,43.97
5,-0.02,1.04,0.11,43.87
5,-0.00,0.94,0.12,43.87
5,-0.00,1.04,0.14,41.00
5,-0.06,1.04,0.18,40.54
5,-0.02,0.97,0.11,40.54
5,-0.01,0.99,0.12,42.32
5,-0.01,0.99,0.12,42.41
5,-0.03,1.06,0.12,42.41
5,-0.03,0.95,0.13,36.72
5,-0.03,0.96,0.14,39.95
5,-0.07,1.02,0.14,39.89
5,-0.02,1.01,0.11,41.46
5,-0.02,0.96,0.12,44.89
5,-0.00,0.96,0.12,44.91
5,-0.06,1.05,0.14,44.91
5,-0.08,0.95,0.11,45.90
5,-0.02,0.95,0.07,40.86
5,-0.03,0.99,0.13,40.86
5,-0.03,1.04,0.12,39.20
5,-0.03,1.02,0.11,43.82
5,-0.01,0.96,0.11,44.55
5,-0.06,1.04,0.14,45.33
5,-0.06,0.98,0.11,42.27
5,-0.02,0.98,0.11,42.30
5,-0.01,0.98,0.13,42.30
5,-0.05,1.06,0.13,39.77
5,-0.05,1.06,0.13,43.88
5,-0.01,0.95,0.13,43.88
5,-0.05,1.01,0.13,45.39
5,-0.05,1.01,0.11,37.26
5,-0.02,1.03,0.11,36.80
5,-0.00,0.96,0.12,42.29
5,-0.00,0.98,0.14,41.53
5,-0.06,1.04,0.14,43.02
5,-0.03,0.96,0.12,43.02
5,-0.03,0.99,0.13,43.36
5,-0.02,0.99,0.18,47.00
5,-0.03,1.05,0.11,47.00
5,-0.01,0.96,0.12,42.65
5,-0.01,0.96,0.15,39.87
5,-0.07,1.02,0.15,39.87
5,-0.02,1.00,0.11,43.58
5,-0.02,0.98,0.12,41.59
5,0.00,0.98,0.12,41.53
5,-0.04,1.05,0.15,44.66
5,-0.04,0.95,0.12,46.39
5,-0.02,0.95,0.07,46.97
5,-0.05,1.00,0.13,46.97
5,-0.03,1.04,0.12,40.60
5,-0.03,1.04,0.11,44.18
5,-0.01,0.96,0.11,44.18
5,-0.07,1.04,0.15,47.14
5,-0.07,1.04,0.11,38.53
5,-0.02,0.98,0.11,38.49
5,-0.01,0.98,0.13,43.19
5,-0.01,1.06,0.13,41.43
5,-0.03,1.06,0.13,40.46
5,-0.01,0.95,0.12,40.46
5,-0.00,1.02,0.13,42.10
5,-0.06,1.02,0.17,41.32
5,-0.02,1.00,0.11,41.32
5,0.01,0.97,0.13,47.51
5,0.01,0.97,0.14,40.80
5,-0.06,1.05,0.14,40.83
5,-0.01,0.96,0.12,40.83
5,-0.01,1.00,0.15,42.83
5,-0.04,1.00,0.15,43.71
5,-0.02,1.04,0.11,43.71
5,-0.00,0.95,0.12,42.19
5,-0.00,0.95,0.08,44.74
5,-0.06,1.03,0.14,44.74
5,-0.02,0.98,0.12,39.61
5,-0.02,0.98,0.12,43.71
5,-0.02,0.99,0.12,43.20
5,-0.04,1.05,0.13,40.85
5,-0.04,1.02,0.12,41.81
5,-0.01,0.95,0.12,40.07
5,-0.05,1.01,0.15,40.07
5,-0.05,1.01,0.12,42.39
5,-0.01,1.01,0.07,46.51
5,0.00,0.97,0.13,46.51
5,-0.06,1.05,0.14,46.20
5,-0.06,1.05,0.11,43.08
5,-0.01,0.96,0.11,43.08
5,-0.03,1.00,0.13,41.10
5,-0.03,0.99,0.13,39.48
5,-0.02,1.05,0.13,39.30
5,-0.00,0.96,0.12,48.70
5,-0.00,1.03,0.13,44.91
5,-0.07,1.03,0.18,43.75
5,-0.02,0.99,0.12,43.75
5,-0.06,0.98,0.14,45.08
5,0.00,0.98,0.13,46.71
5,-0.04,1.05,0.13,46.71
5,-0.02,0.94,0.11,46.80
5,-0.02,0.95,0.14,47.28
5,-0.05,1.01,0.14,47.50
5,-0.02,1.03,0.11,43.59
5,-0.02,0.96,0.12,42.55
5,0.01,0.96,0.12,41.52
5,-0.06,1.04,0.15,41.52
5,-0.03,0.97,0.11,46.35
5,-0.03,0.97,0.06,45.89
5,-0.02,1.00,0.13,45.89
5,-0.02,1.05,0.13,40.36
5,-0.02,1.05,0.12,43.00
5,-0.01,0.95,0.12,42.56
5,-0.07,1.02,0.14,38.64
5,-0.07,1.00,0.11,45.11
5,-0.02,1.00,0.11,42.02
5,-0.01,0.97,0.13,42.02
5,-0.05,1.06,0.12,41.41
5,-0.05,1.06,0.12,39.60
5,-0.02,0.95,0.12,39.60
5,-0.04,1.01,0.15,38.19
5,-0.04,1.01,0.12,42.31
5,-0.02,1.04,0.12,42.61
5,-0.01,0.96,0.12,44.17
5,-0.01,0.97,0.15,46.83
5,-0.07,1.03,0.15,44.25
5,-0.03,0.97,0.12,44.25
5,-0.03,0.99,0.12,39.21
5,-0.01,0.99,0.06,46.97
5,-0.03,1.05,0.13,46.97
5,-0.01,0.95,0.12,44.11
5,-0.01,0.95,0.14,46.14
5,-0.06,1.02,0.14,46.14
5,-0.03,1.00,0.12,47.05
5,-0.03,1.03,0.13,47.99
5,0.00,0.97,0.13,47.78
5,-0.05,1.05,0.13,46.21
5,-0.05,0.96,0.12,45.16
5,-0.02,0.96,0.12,47.18
5,-0.03,0.99,0.14,47.18
5,-0.02,1.04,0.11,43.02
5,-0.02,1.04,0.12,42.08
5,-0.00,0.97,0.12,42.08
5,-0.06,1.03,0.16,41.96
5,-0.06,1.06,0.11,45.60
5,-0.02,1.00,0.11,46.07
5,-0.01,0.98,0.13,43.72
5,-0.01,1.06,0.13,41.70
5,-0.05,1.06,0.13,43.87
5,-0.02,0.95,0.13,43.87
5,-0.06,1.01,0.13,46.53
5,-0.06,1.01,0.17,40.21
5,-0.02,1.02,0.11,40.21
5,0.01,0.97,0.12,39.03
5,0.01,0.97,0.13,43.11
5,-0.05,1.05,0.13,43.79
5,-0.03,0.97,0.12,43.00
5,-0.03,1.00,0.13,42.90
5,-0.02,1.00,0.13,43.47
5,-0.02,1.05,0.12,43.47
5,-0.01,0.96,0.12,42.03
5,-0.01,0.96,0.08,45.08
5,-0.06,1.03,0.14,45.08
5,-0.02,0.99,0.11,44.96
5,-0.02,0.99,0.12,43.09
5,-0.00,0.97,0.12,43.09
5,-0.05,1.05,0.13,40.90
5,-0.05,1.02,0.11,45.53
5,-0.02,0.96,0.11,46.27
5,-0.05,1.01,0.14,46.27
5,-0.05,1.03,0.12,44.67
5,-0.03,1.03,0.07,43.24
5,-0.00,0.96,0.13,43.24
5,-0.06,1.04,0.15,47.12
5,-0.06,1.04,0.12,41.06
5,-0.02,0.97,0.12,41.06
5,-0.02,0.99,0.13,44.72
5,-0.02,0.99,0.13,45.06
5,-0.03,1.06,0.13,45.13
5,-0.01,0.95,0.12,42.00
5,-0.01,1.02,0.13,40.49
5,-0.06,1.02,0.13,44.70
5,-0.02,1.00,0.10,44.70
5,-0.06,0.97,0.13,41.79
5,0.00,0.97,0.15,41.88
5,-0.05,1.06,0.15,41.88
5,-0.02,0.96,0.12,40.91
5,-0.02,1.00,0.14,43.81
5,-0.04,1.00,0.14,44.22
5,-0.03,1.04,0.12,41.87
5,-0.03,0.96,0.12,43.84
5,0.00,0.96,0.12,42.51
5,-0.07,1.03,0.15,42.51
5,-0.09,0.99,0.12,46.05
5,-0.02,0.99,0.07,43.34
5,-0.02,0.99,0.13,43.34
5,-0.04,1.05,0.13,44.29
5,-0.04,1.05,0.13,43.83
5,-0.01,0.95,0.13,44.09
5,-0.05,1.01,0.14,44.09
5,-0.05,1.02,0.12,42.42
5,-0.02,1.02,0.12,44.56
5,0.01,0.96,0.11,44.56
5,0.00,1.05,0.13,39.81
5,-0.06,1.05,0.18,43.47
5,-0.02,0.96,0.11,43.47
5,-0.03,1.00,0.13,45.02
6,-0.04,1.04,0.13,41.04
6,-0.01,0.96,0.11,45.84
6,-0.01,0.96,0.14,45.29
6,-0.05,1.00,0.14,45.29
6,-0.02,1.03,0.11,46.18
6,-0.02,1.03,0.13,43.47
6,0.00,0.96,0.13,43.34
6,-0.06,1.04,0.15,42.55
6,-0.06,0.97,0.12,48.55
6,-0.02,0.97,0.12,43.54
6,-0.02,0.98,0.13,43.54
6,-0.03,1.05,0.12,44.97
6,-0.03,1.05,0.12,48.23
6,-0.00,0.96,0.12,48.23
6,-0.06,1.02,0.15,44.83
6,-0.06,1.02,0.11,41.35
6,-0.02,1.00,0.11,40.71
6,-0.01,0.98,0.13,43.06
6,-0.01,0.98,0.15,43.69
6,-0.04,1.05,0.15,43.61
6,-0.02,0.96,0.12,43.61
6,-0.04,1.00,0.14,41.21
6,-0.04,1.00,0.18,43.53
6,-0.02,1.03,0.12,43.53
6,-0.01,0.96,0.13,41.36
6,-0.01,0.96,0.14,38.63
6,-0.06,1.04,0.14,38.63
6,-0.03,0.98,0.11,40.90
6,-0.03,0.99,0.12,41.57
6,-0.02,0.99,0.12,46.67
6,-0.03,1.04,0.13,46.67
6,-0.03,0.96,0.11,41.70
6,-0.00,0.96,0.08,45.60
6,-0.06,1.01,0.15,45.60
6,-0.03,1.01,0.11,46.28
6,-0.03,1.01,0.12,43.12
6,-0.00,0.97,0.12,43.12
6,-0.05,1.05,0.13,47.66
6,-0.05,1.02,0.11,44.63
6,-0.02,0.96,0.11,44.65
6,-0.04,1.01,0.14,43.08
6,-0.04,1.04,0.13,42.02
6,-0.03,1.04,0.13,42.84
6,0.00,0.96,0.11,42.84
6,0.01,1.03,0.14,41.00
6,-0.06,1.03,0.18,41.14
6,-0.02,0.99,0.11,41.14
6,0.00,0.98,0.13,43.89
6,0.00,0.99,0.13,42.02
6,-0.03,1.05,0.13,41.50
6,-0.02,0.96,0.12,42.29
6,-0.02,1.02,0.13,36.45
6,-0.05,1.02,0.13,42.51
6,-0.02,1.01,0.12,42.51
6,-0.00,0.97,0.11,45.18
6,-0.00,0.97,0.08,41.08
6,-0.06,1.05,0.15,41.08
6,-0.03,0.97,0.10,43.86
6,-0.03,0.97,0.14,44.88
6,-0.04,1.00,0.14,44.84
6,-0.03,1.05,0.12,46.41
6,-0.03,1.02,0.12,41.55
6,-0.01,0.96,0.12,44.20
6,-0.07,1.02,0.14,44.20
6,-0.07,0.99,0.11,42.03
6,-0.01,0.99,0.12,44.77
6,-0.00,0.98,0.12,44.77
6,-0.05,1.04,0.13,46.11
6,-0.05,1.04,0.13,41.72
6,-0.01,0.96,0.13,41.72
6,-0.05,1.00,0.13,39.77
6,-0.05,1.03,0.12,46.30
6,-0.01,1.03,0.12,46.66
6,0.00,0.98,0.12,42.74
6,0.00,1.04,0.14,41.87
6,-0.06,1.04,0.18,52.19
6,-0.02,0.98,0.12,52.19
6,-0.03,0.98,0.14,46.73
6,-0.03,0.98,0.13,44.31
6,-0.04,1.05,0.13,44.31
6,-0.00,0.96,0.12,48.16
6,-0.00,0.95,0.14,44.47
6,-0.05,1.02,0.14,44.09
6,-0.02,1.00,0.11,41.74
6,-0.02,0.98,0.13,41.15
6,-0.00,0.98,0.13,43.73
6,-0.05,1.04,0.14,43.73
6,-0.02,0.96,0.13,43.26
6,-0.02,0.96,0.13,45.29
6,-0.05,1.00,0.13,45.29
6,-0.02,1.04,0.11,39.19
6,-0.02,1.03,0.12,43.84
6,-0.00,0.97,0.12,44.35
6,-0.06,1.03,0.14,42.78
6,-0.06,0.98,0.12,46.73
6,-0.02,0.98,0.12,46.64
6,-0.02,0.98,0.12,46.64
6,-0.03,1.05,0.13,43.92
6,-0.03,1.05,0.18,46.18
6,-0.01,0.95,0.12,46.18
6,-0.06,1.01,0.14,43.91
6,-0.06,1.01,0.11,39.90
6,-0.03,1.02,0.11,40.53
6,-0.01,0.97,0.12,45.23
6,-0.01,0.99,0.13,44.55
6,-0.05,1.05,0.13,40.80
6,-0.03,0.96,0.12,40.80
6,-0.03,1.00,0.13,42.49
6,-0.03,1.00,0.17,45.28
6,-0.02,1.04,0.11,45.28
6,-0.01,0.96,0.13,46.45
6,-0.01,0.96,0.15,41.49
6,-0.07,1.03,0.15,41.49
6,-0.01,0.99,0.11,39.20
6,-0.01,0.98,0.13,42.00
6,-0.01,0.98,0.13,41.90
6,-0.04,1.05,0.12,42.68
6,-0.04,0.95,0.12,42.24
6,-0.02,0.95,0.12,39.31
6,-0.05,1.01,0.14,39.31
6,-0.02,1.02,0.11,39.06
6,-0.02,1.02,0.12,44.65
6,-0.01,0.96,0.12,44.65
6,-0.06,1.05,0.14,46.00
6,-0.06,1.03,0.11,38.75
6,-0.02,0.97,0.11,38.68
6,-0.02,0.99,0.13,45.73
6,-0.02,1.04,0.12,47.82
6,-0.03,1.04,0.12,43.66
6,-0.01,0.96,0.13,43.66
6,-0.01,1.03,0.14,42.35
6,-0.07,1.03,0.18,39.42
6,-0.02,1.00,0.12,39.42
6,-0.01,0.97,0.13,39.38
6,-0.01,0.97,0.13,44.48
6,-0.04,1.05,0.13,44.46
6,-0.02,0.95,0.13,42.11
6,-0.02,1.00,0.14,43.32
6,-0.05,1.00,0.14,47.29
6,-0.02,1.03,0.12,47.29
6,-0.01,0.96,0.12,47.13
6,-0.01,0.96,0.07,42.67
6,-0.07,1.04,0.14,42.67
6,-0.03,0.98,0.10,41.14
6,-0.03,0.98,0.13,40.40
6,-0.03,0.99,0.13,40.40
6,-0.03,1.05,0.12,45.10
6,-0.03,1.02,0.13,43.16
6,0.00,0.96,0.13,44.34
6,-0.06,1.02,0.15,44.34
6,-0.06,1.00,0.11,44.08
6,-0.02,1.00,0.12,43.73
6,-0.00,0.98,0.12,43.73
6,-0.04,1.05,0.14,44.05
6,-0.04,1.05,0.11,46.54
6,-0.02,0.96,0.11,46.54
6,-0.04,1.00,0.14,39.62
6,-0.04,0.97,0.12,42.77
6,-0.03,1.04,0.12,42.34
6,-0.01,0.97,0.11,42.34
6,-0.01,1.04,0.15,44.79
6,-0.07,1.04,0.15,42.27
6,-0.02,0.98,0.10,42.27
6,-0.01,0.99,0.13,47.28
6,-0.01,0.99,0.12,41.76
6,-0.04,1.06,0.12,41.76
6,-0.01,0.95,0.12,42.81
6,-0.01,0.95,0.15,46.91
6,-0.05,1.01,0.15,46.54
6,-0.02,1.01,0.12,44.19
6,-0.02,0.97,0.12,41.43
6,-0.00,0.97,0.12,42.97
6,-0.05,1.04,0.13,42.97
6,-0.03,0.96,0.12,43.16
6,-0.03,0.96,0.12,48.55
6,-0.05,0.99,0.12,48.55
6,-0.02,1.05,0.11,44.04
6,-0.02,1.05,0.11,44.61
6,-0.01,0.96,0.11,45.27
6,-0.06,1.04,0.14,43.71
6,-0.06,1.06,0.12,44.13
6,-0.02,1.00,0.12,46.83
6,-0.00,0.98,0.12,46.83
6,-0.05,1.05,0.13,44.32
6,-0.05,1.05,0.18,44.77
6,-0.01,0.96,0.12,44.77
6,-0.05,1.00,0.13,45.13
6,-0.05,1.00,0.12,41.68
6,-0.02,1.02,0.12,41.68
6,-0.01,0.97,0.12,39.16
6,-0.01,0.98,0.14,43.35
6,-0.05,1.05,0.14,42.78
6,-0.02,0.97,0.11,42.78
6,-0.02,0.99,0.11,45.86
6,-0.03,0.99,0.07,42.44
6,-0.04,1.05,0.13,42.44
6,-0.01,0.96,0.12,41.09
6,-0.01,0.96,0.14,43.53
6,-0.06,1.01,0.14,43.53
6,-0.03,1.01,0.11,41.74
6,-0.03,1.05,0.12,42.52
6,0.00,0.99,0.12,42.92
6,-0.04,1.05,0.13,43.71
6,-0.04,0.97,0.11,38.29
6,-0.02,0.97,0.11,42.91
6,-0.05,0.99,0.14,42.91
6,-0.02,1.03,0.13,43.46
6,-0.02,1.03,0.18,39.91
6,0.00,0.97,0.12,39.91
6,-0.05,1.04,0.14,43.98
6,-0.05,1.04,0.11,41.44
6,-0.03,0.98,0.11,40.82
6,-0.03,0.99,0.13,43.17
6,-0.03,1.05,0.13,38.05
6,-0.03,1.05,0.13,47.53
6,-0.02,0.95,0.11,47.53
6,-0.06,1.02,0.13,44.43
6,-0.06,1.02,0.17,44.86
6,-0.02,1.01,0.11,44.86
6,0.01,0.97,0.12,42.92
6,0.01,0.97,0.14,44.38
6,-0.04,1.05,0.14,43.89
6,-0.02,0.97,0.11,41.54
6,-0.02,0.99,0.14,45.12
6,-0.04,0.99,0.14,46.73
6,-0.02,1.04,0.12,46.73
6,-0.02,0.96,0.12,42.09
6,-0.00,0.96,0.08,46.85
6,-0.06,1.03,0.14,46.85
6,-0.03,0.99,0.12,43.96
6,-0.03,0.99,0.12,42.47
6,-0.01,0.99,0.12,42.47
7,-0.06,1.04,0.18,42.87
7,-0.02,0.96,0.12,42.87
7,-0.03,0.99,0.14,43.32
7,-0.03,0.99,0.12,40.85
7,-0.03,1.05,0.12,41.22
7,-0.01,0.96,0.12,42.00
7,-0.01,1.03,0.13,43.15
7,-0.07,1.03,0.13,45.71
7,-0.02,0.99,0.13,45.71
7,-0.01,0.97,0.13,45.68
7,-0.01,0.97,0.13,41.13
7,-0.04,1.05,0.13,41.13
7,-0.01,0.97,0.11,41.33
7,-0.01,0.97,0.13,46.46
7,-0.04,1.00,0.13,46.53
7,-0.02,1.02,0.11,39.48
7,-0.02,1.03,0.12,41.29
7,-0.01,0.97,0.12,40.87
7,-0.06,1.04,0.15,40.87
7,-0.03,0.98,0.11,40.82
7,-0.03,0.98,0.07,42.55
7,-0.03,0.98,0.13,42.55
7,-0.03,1.04,0.12,43.22
7,-0.03,1.04,0.12,42.24
7,-0.01,0.96,0.12,42.24
7,-0.05,1.02,0.13,43.18
7,-0.05,1.00,0.11,44.32
7,-0.02,1.00,0.11,48.81
7,-0.00,0.97,0.12,48.81
7,-0.00,1.05,0.13,47.27
7,-0.04,1.05,0.19,42.36
7,-0.01,0.97,0.12,42.36
7,-0.05,1.01,0.14,43.09
7,-0.05,1.01,0.12,41.53
7,-0.03,1.03,0.12,41.53
7,-0.00,0.96,0.13,46.03
7,-0.00,0.97,0.15,44.37
7,-0.05,1.03,0.15,43.92
7,-0.03,0.99,0.12,43.13
7,-0.03,0.99,0.13,42.89
7,-0.01,0.99,0.13,44.61
7,-0.03,1.05,0.13,44.61
7,-0.02,0.96,0.13,40.26
7,-0.02,0.96,0.14,44.11
7,-0.05,1.02,0.14,44.11
7,-0.03,1.01,0.11,44.54
7,-0.03,1.03,0.11,43.33
7,-0.01,0.97,0.11,43.75
7,-0.04,1.05,0.14,42.18
7,-0.04,0.96,0.12,51.91
7,-0.02,0.96,0.12,45.87
7,-0.04,1.00,0.14,45.87
7,-0.04,1.04,0.12,43.45
7,-0.04,1.04,0.12,44.21
7,0.00,0.96,0.12,44.21
7,-0.06,1.02,0.14,42.25
7,-0.06,1.02,0.11,46.14
7,-0.02,0.99,0.11,46.07
7,-0.01,0.98,0.11,39.02
7,-0.01,0.99,0.13,45.79
7,-0.04,1.05,0.13,45.33
7,-0.01,0.95,0.11,45.33
7,-0.05,1.01,0.13,42.07
7,-0.05,1.01,0.13,40.51
7,-0.02,1.02,0.13,40.51
7,-0.00,0.97,0.11,43.59
7,-0.00,0.97,0.12,48.21
7,-0.05,1.04,0.12,48.21
7,-0.03,0.96,0.12,44.27
7,-0.03,0.99,0.13,43.13
7,-0.03,0.99,0.13,43.14
7,-0.03,1.04,0.12,46.27
7,-0.03,0.96,0.11,44.46
7,-0.01,0.96,0.08,41.05
7,-0.05,1.02,0.14,41.05
7,-0.01,0.99,0.11,43.79
7,-0.01,0.99,0.12,44.99
7,0.00,0.98,0.12,44.99
7,-0.04,1.05,0.14,40.65
7,-0.04,1.02,0.12,44.87
7,-0.01,0.96,0.12,44.66
7,-0.05,1.01,0.13,44.66
7,-0.05,1.02,0.12,42.07
7,-0.03,1.02,0.12,40.72
7,-0.01,0.96,0.12,40.72
7,-0.06,1.04,0.13,49.38
7,-0.06,1.04,0.17,43.29
7,-0.03,0.98,0.10,43.29
7,-0.03,0.99,0.12,45.36
7,-0.03,0.99,0.13,44.84
7,-0.04,1.05,0.13,44.84
7,-0.01,0.95,0.12,47.97
7,-0.01,1.01,0.14,41.05
7,-0.06,1.01,0.14,42.96
7,-0.02,1.01,0.11,42.96
7,-0.00,0.97,0.13,41.88
7,-0.00,0.97,0.13,43.07
7,-0.05,1.04,0.13,43.07
7,-0.02,0.96,0.13,42.83
7,-0.02,0.96,0.12,46.41
7,-0.04,1.00,0.12,46.61
7,-0.03,1.03,0.12,46.61
7,-0.03,1.03,0.12,41.52
7,-0.00,0.97,0.12,41.91
7,-0.05,1.03,0.13,41.91
7,-0.05,0.98,0.11,46.49
7,-0.03,0.98,0.12,42.96
7,-0.03,0.99,0.12,42.96
7,-0.04,1.04,0.14,40.95
7,-0.04,1.04,0.13,42.55
7,-0.01,0.96,0.13,42.55
7,-0.05,1.02,0.14,44.91
7,-0.05,1.02,0.12,44.72
7,-0.02,1.02,0.12,44.99
7,-0.01,0.97,0.13,51.25
7,-0.01,1.04,0.14,38.13
7,-0.06,1.04,0.18,45.28
7,-0.02,0.97,0.12,45.28
7,-0.04,0.99,0.13,43.34
7,-0.04,0.99,0.12,45.06
7,-0.03,1.03,0.12,45.06
7,-0.00,0.97,0.11,45.23
7,-0.00,0.96,0.14,47.08
7,-0.06,1.03,0.14,47.54
7,-0.02,0.99,0.11,44.41
7,-0.02,0.98,0.13,49.98
7,-0.01,0.98,0.13,43.29
7,-0.04,1.04,0.14,43.29
7,-0.02,0.96,0.12,45.89
7,-0.02,0.96,0.07,44.64
7,-0.05,1.01,0.14,44.64
7,-0.03,1.02,0.13,41.09
7,-0.03,1.02,0.12,37.86
7,0.00,0.96,0.12,37.76
7,-0.05,1.04,0.14,42.46
7,-0.05,0.97,0.11,46.95
7,-0.02,0.97,0.11,40.84
7,-0.03,0.99,0.13,40.84
7,-0.03,1.04,0.13,45.18
7,-0.03,1.04,0.14,45.84
7,-0.00,0.96,0.14,45.84
7,-0.06,1.02,0.14,42.84
7,-0.06,1.02,0.12,41.30
7,-0.03,1.01,0.12,40.79
7,-0.01,0.98,0.13,42.35
7,-0.01,0.98,0.14,41.03
7,-0.04,1.05,0.14,43.82
7,-0.01,0.95,0.12,43.82
7,-0.01,1.01,0.13,46.76
7,-0.04,1.01,0.18,49.12
7,-0.03,1.02,0.12,49.12
7,-0.01,0.97,0.12,45.39
7,-0.01,0.97,0.15,43.32
7,-0.05,1.02,0.15,43.32
7,-0.02,0.98,0.12,39.11
7,-0.02,0.99,0.12,45.24
7,-0.02,0.99,0.12,44.74
7,-0.04,1.03,0.13,47.87
7,-0.04,0.96,0.12,44.97
7,-0.01,0.96,0.12,42.22
7,-0.05,1.01,0.14,42.22
7,-0.02,1.01,0.12,43.11
7,-0.02,1.01,0.13,46.73
7,-0.01,0.98,0.13,46.73
7,-0.05,1.04,0.13,39.35
7,-0.05,1.03,0.11,44.16
7,-0.01,0.96,0.11,44.06
7,-0.04,0.99,0.13,41.71
7,-0.04,1.03,0.11,39.77
7,-0.03,1.03,0.11,44.62
7,-0.00,0.96,0.13,44.62
7,-0.06,1.02,0.14,46.68
7,-0.06,1.02,0.18,44.96
7,-0.03,0.99,0.12,44.96
7,-0.01,0.98,0.13,44.88
7,-0.01,0.98,0.13,40.97
7,-0.04,1.04,0.13,41.14
7,-0.02,0.95,0.11,41.92
7,-0.02,1.00,0.13,48.42
7,-0.05,1.00,0.13,43.53
7,-0.02,1.02,0.11,43.53
7,-0.01,0.97,0.13,42.81
7,-0.01,0.97,0.13,43.17
7,-0.04,1.04,0.13,43.17
7,-0.03,0.97,0.12,42.19
7,-0.03,0.97,0.14,45.79
7,-0.03,0.99,0.14,45.79
7,-0.02,1.03,0.13,44.19
7,-0.02,1.02,0.12,45.23
7,-0.01,0.96,0.12,44.19
7,-0.05,1.02,0.14,44.19
7,-0.05,1.00,0.11,39.47
7,-0.02,1.00,0.07,42.78
7,-0.02,0.98,0.14,42.78
7,-0.04,1.05,0.13,44.11
7,-0.04,1.05,0.13,42.54
7,-0.01,0.96,0.13,42.54
7,-0.05,1.01,0.13,44.32
7,-0.05,1.02,0.12,41.29
7,-0.03,1.02,0.12,40.69
7,0.00,0.97,0.11,48.53
7,0.00,1.04,0.13,47.21
7,-0.06,1.04,0.13,42.29
7,-0.02,0.98,0.12,42.29
7,-0.02,0.99,0.14,39.79
7,-0.02,0.99,0.13,43.45
7,-0.03,1.04,0.13,43.45
7,-0.01,0.96,0.12,47.18
7,-0.01,0.96,0.14,42.98
7,-0.05,1.02,0.14,42.40
7,-0.02,1.01,0.12,48.67
7,-0.02,0.98,0.12,45.97
7,-0.02,0.98,0.12,44.17
7,-0.05,1.04,0.14,44.17
7,-0.01,0.96,0.12,47.41
7,-0.01,0.96,0.07,44.31
7,-0.04,1.01,0.13,44.31
7,-0.03,1.02,0.11,42.23
7,-0.03,1.02,0.12,42.65
7,-0.01,0.97,0.12,42.37
7,-0.05,1.02,0.15,46.29
7,-0.05,1.04,0.11,44.87
7,-0.02,0.98,0.11,48.70
7,-0.03,0.99,0.13,48.70
7,-0.04,1.04,0.13,44.61
7,-0.04,1.04,0.18,42.93
7,-0.01,0.95,0.12,42.93
7,-0.05,1.00,0.13,42.05
7,-0.05,1.00,0.11,42.49
7,-0.02,1.01,0.11,42.49
7,-0.01,0.97,0.13,46.26
7,-0.01,0.98,0.13,44.99
8,-0.02,1.00,0.11,48.76
8,-0.02,1.05,0.13,43.48
8,-0.01,0.99,0.13,43.08
8,-0.03,1.05,0.12,42.29
8,-0.03,0.97,0.12,47.02
8,-0.02,0.97,0.12,43.74
8,-0.05,1.01,0.13,43.74
8,-0.02,1.02,0.12,41.81
8,-0.02,1.02,0.06,44.77
8,-0.00,0.96,0.13,44.77
8,-0.06,1.04,0.14,44.57
8,-0.06,1.04,0.12,43.73
8,-0.02,0.97,0.12,43.15
8,-0.03,1.00,0.13,46.28
8,-0.03,0.98,0.13,50.07
8,-0.03,1.04,0.13,46.37
8,-0.00,0.97,0.12,46.37
8,-0.05,1.02,0.13,46.74
8,-0.05,1.02,0.17,42.17
8,-0.02,0.99,0.11,42.17
8,-0.02,0.98,0.13,42.87
8,-0.02,0.98,0.13,41.46
8,-0.05,1.04,0.13,41.46
8,-0.02,0.96,0.12,41.89
8,-0.02,0.94,0.14,40.36
8,-0.04,1.00,0.14,44.84
8,-0.03,1.03,0.12,44.84
8,-0.03,0.96,0.12,44.86
8,-0.00,0.96,0.08,47.97
8,-0.06,1.03,0.14,47.97
8,-0.01,0.98,0.11,46.74
8,-0.01,0.98,0.14,46.48
8,-0.02,0.99,0.14,46.48
8,-0.03,1.04,0.12,44.18
8,-0.03,1.02,0.12,48.83
8,-0.01,0.96,0.12,48.61
8,-0.05,1.02,0.14,39.99
8,-0.05,1.01,0.12,41.49
8,-0.02,1.01,0.12,42.32
8,-0.02,0.97,0.13,42.32
8,-0.05,1.03,0.14,40.16
8,-0.05,1.03,0.18,44.14
8,-0.01,0.97,0.12,44.14
8,-0.03,1.00,0.13,43.98
8,-0.03,0.96,0.13,45.51
8,-0.03,1.03,0.13,45.50
8,-0.00,0.97,0.11,40.80
8,-0.00,1.03,0.13,40.60
8,-0.05,1.03,0.13,46.84
8,-0.02,0.99,0.11,46.84
8,-0.02,0.98,0.13,45.77
8,-0.02,0.98,0.13,40.60
8,-0.05,1.05,0.13,40.60
8,-0.02,0.97,0.11,45.46
8,-0.02,0.97,0.13,45.57
8,-0.05,1.02,0.13,45.66
8,-0.03,1.01,0.12,42.52
8,-0.03,1.03,0.13,40.46
8,-0.01,0.97,0.13,46.91
8,-0.04,1.04,0.15,46.91
8,-0.01,0.98,0.11,48.37
8,-0.01,0.98,0.06,44.97
8,-0.03,0.99,0.13,44.97
8,-0.03,1.03,0.12,45.42
8,-0.03,1.03,0.12,42.67
8,-0.01,0.96,0.12,42.67
8,-0.05,1.02,0.15,44.35
8,-0.05,1.06,0.12,43.14
8,-0.02,1.00,0.12,42.21
8,-0.02,0.98,0.13,42.21
8,-0.02,1.05,0.13,40.34
8,-0.04,1.05,0.13,45.39
8,-0.02,0.97,0.13,45.39
8,-0.05,0.99,0.15,49.20
8,-0.05,0.99,0.12,40.00
8,-0.02,1.02,0.12,40.00
8,-0.01,0.97,0.11,40.51
8,-0.01,0.98,0.13,41.18
8,-0.04,1.04,0.13,41.23
8,-0.03,0.97,0.11,40.44
8,-0.03,0.98,0.13,41.35
8,-0.03,0.98,0.13,41.30
8,-0.03,1.04,0.13,41.30
8,-0.00,0.96,0.13,44.69
8,-0.00,0.96,0.14,43.65
8,-0.06,1.02,0.14,43.65
8,-0.03,1.01,0.12,43.43
8,-0.03,1.04,0.12,44.85
8,-0.01,0.98,0.12,44.93
8,-0.05,1.04,0.13,43.36
8,-0.05,0.96,0.12,41.96
8,-0.02,0.96,0.12,45.47
8,-0.03,1.00,0.13,45.47
8,-0.04,1.02,0.12,44.38
8,-0.04,1.02,0.12,41.54
8,-0.00,0.97,0.12,41.54
8,-0.05,1.02,0.15,48.92
8,-0.05,1.02,0.12,43.53
8,-0.02,0.98,0.12,43.31
8,-0.03,0.99,0.13,42.52
8,-0.03,0.98,0.11,43.31
8,-0.04,1.05,0.11,44.37
8,-0.00,0.97,0.11,44.37
8,-0.00,1.01,0.15,40.29
8,-0.05,1.01,0.17,40.65
8,-0.03,1.00,0.11,40.65
8,-0.01,0.97,0.12,42.10
8,-0.01,0.97,0.13,43.15
8,-0.04,1.04,0.13,43.15
8,-0.02,0.96,0.11,43.47
8,-0.02,1.00,0.13,46.08
8,-0.03,1.00,0.13,46.11
8,-0.03,1.03,0.12,41.41
8,-0.03,0.98,0.11,40.59
8,-0.01,0.98,0.07,43.95
8,-0.05,1.02,0.14,43.95
8,-0.02,0.99,0.11,41.87
8,-0.02,0.99,0.13,47.90
8,-0.01,0.99,0.13,47.90
8,-0.04,1.04,0.13,42.57
8,-0.04,1.04,0.12,47.07
8,0.00,0.97,0.12,47.12
8,-0.05,1.01,0.13,47.12
8,-0.05,1.01,0.11,41.54
8,-0.03,1.01,0.11,43.56
8,-0.01,0.97,0.11,43.56
8,-0.05,1.04,0.14,44.90
8,-0.05,1.04,0.13,42.24
8,-0.01,0.97,0.13,42.24
8,-0.03,0.99,0.13,42.17
8,-0.03,0.99,0.12,45.14
8,-0.04,1.03,0.12,45.26
8,-0.01,0.97,0.13,46.04
8,-0.01,1.02,0.13,47.35
8,-0.05,1.02,0.13,41.19
8,-0.02,0.99,0.12,41.19
8,-0.01,0.98,0.13,42.89
8,-0.01,0.98,0.14,41.79
8,-0.05,1.04,0.14,41.79
8,-0.02,0.97,0.13,40.86
8,-0.02,0.97,0.13,43.57
8,-0.03,1.00,0.13,43.52
8,-0.03,1.02,0.12,46.65
8,-0.03,1.03,0.12,46.36
8,-0.01,0.97,0.12,40.31
8,-0.05,1.03,0.14,40.31
8,-0.05,0.99,0.11,44.99
8,-0.02,0.99,0.07,46.58
8,-0.03,0.99,0.13,46.58
8,-0.04,1.04,0.13,42.55
8,-0.04,1.04,0.12,40.99
8,-0.01,0.97,0.12,40.99
8,-0.04,1.01,0.14,42.59
8,-0.04,1.00,0.11,44.46
8,-0.03,1.00,0.11,43.96
8,-0.02,0.97,0.12,45.52
8,-0.02,1.04,0.13,43.96
8,-0.05,1.04,0.13,44.59
8,-0.01,0.97,0.11,44.59
8,-0.03,1.00,0.13,40.41
8,-0.03,1.00,0.13,45.54
8,-0.03,1.03,0.13,45.54
8,-0.01,0.97,0.12,44.71
8,-0.01,0.96,0.12,45.32
8,-0.05,1.02,0.12,45.35
8,-0.03,0.99,0.11,43.78
8,-0.03,0.99,0.13,42.00
8,-0.01,0.99,0.13,48.39
8,-0.04,1.04,0.13,48.39
8,-0.01,0.97,0.11,43.67
8,-0.01,0.97,0.07,51.12
8,-0.05,1.02,0.14,51.12
8,-0.02,1.02,0.13,45.73
8,-0.02,1.02,0.12,41.34
8,-0.02,0.97,0.12,41.05
8,-0.05,1.04,0.14,41.84
8,-0.05,1.04,0.11,43.52
8,-0.02,0.98,0.11,47.36
8,-0.04,0.99,0.13,47.36
8,-0.04,1.03,0.11,42.69
8,-0.04,1.03,0.11,41.22
8,-0.01,0.97,0.11,41.22
8,-0.05,1.03,0.15,45.16
8,-0.05,1.03,0.13,40.25
8,-0.03,0.99,0.13,40.25
8,-0.01,0.98,0.14,43.94
8,-0.01,0.98,0.13,46.70
8,-0.04,1.04,0.13,40.03
8,-0.01,0.97,0.11,40.03
8,-0.01,1.00,0.14,45.52
8,-0.05,1.00,0.13,40.39
8,-0.02,1.02,0.13,40.39
8,-0.01,0.96,0.12,46.66
8,-0.01,0.96,0.13,43.14
8,-0.05,1.03,0.13,43.14
8,-0.02,0.99,0.12,44.77
8,-0.02,0.99,0.13,42.25
8,-0.02,0.99,0.13,42.57
8,-0.03,1.03,0.13,44.14
8,-0.03,0.96,0.12,43.07
8,-0.00,0.96,0.12,47.33
8,-0.05,1.02,0.14,47.33
8,-0.01,1.00,0.12,45.28
8,-0.01,1.00,0.12,46.44
8,-0.01,0.98,0.12,46.44
8,-0.05,1.05,0.14,43.00
8,-0.05,1.02,0.11,45.77
8,-0.01,0.96,0.11,46.02
8,-0.04,1.01,0.14,42.88
8,-0.04,1.02,0.12,43.94
8,-0.02,1.02,0.12,44.27
8,-0.01,0.98,0.11,44.27
8,-0.05,1.03,0.14,44.94
8,-0.05,1.03,0.18,45.11
8,-0.02,0.98,0.12,45.11
8,-0.02,0.99,0.13,46.44
8,-0.02,0.99,0.13,38.52
8,-0.04,1.02,0.13,38.65
8,-0.01,0.97,0.12,43.35
8,-0.01,0.95,0.14,44.72
8,-0.04,1.01,0.14,43.31
8,-0.02,1.00,0.13,43.31
8,-0.01,0.97,0.14,43.83
8,-0.01,0.97,0.13,47.04
8,-0.05,1.03,0.13,47.04
8,-0.02,0.97,0.11,40.04
8,-0.02,0.97,0.13,44.69
8,-0.03,1.00,0.13,44.69
8,-0.03,1.02,0.12,41.11
8,-0.03,1.02,0.12,41.74
8,-0.01,0.96,0.12,50.38
8,-0.05,1.03,0.13,50.38
9,-0.03,1.01,0.12,42.85
9,-0.01,0.97,0.12,42.85
9,-0.01,1.04,0.14,43.95
9,-0.05,1.04,0.14,43.19
9,-0.02,0.98,0.12,43.19
9,-0.03,1.00,0.13,40.65
9,-0.03,1.00,0.18,40.89
9,-0.04,1.04,0.11,40.89
9,-0.01,0.96,0.11,42.73
9,-0.01,0.96,0.13,41.70
9,-0.05,1.03,0.13,41.71
9,-0.02,0.99,0.11,44.06
9,-0.02,0.98,0.11,47.15
9,-0.01,0.98,0.11,42.56
9,-0.06,1.03,0.13,42.56
9,-0.02,0.98,0.12,44.76
9,-0.02,0.98,0.07,45.87
9,-0.04,1.00,0.14,45.87
9,-0.02,1.01,0.12,42.41
9,-0.02,1.01,0.12,44.88
9,-0.02,0.98,0.12,44.64
9,-0.05,1.03,0.14,42.29
9,-0.05,1.04,0.11,44.85
9,-0.03,0.98,0.11,41.10
9,-0.03,0.99,0.13,41.10
9,-0.03,1.04,0.12,44.42
9,-0.03,1.04,0.12,41.07
9,-0.01,0.98,0.12,41.07
9,-0.06,1.00,0.15,44.13
9,-0.06,1.00,0.12,46.20
9,-0.01,1.00,0.12,46.20
9,-0.01,0.97,0.12,43.42
9,-0.01,0.98,0.13,46.88
9,-0.05,1.04,0.13,46.82
9,-0.02,0.97,0.11,45.26
9,-0.02,1.00,0.13,40.10
9,-0.04,1.00,0.19,41.55
9,-0.02,1.02,0.12,41.55
9,-0.01,0.98,0.11,47.54
9,-0.01,0.98,0.14,40.52
9,-0.05,1.03,0.14,40.52
9,-0.02,0.98,0.12,41.51
9,-0.02,0.99,0.13,41.19
9,-0.03,0.99,0.13,40.99
9,-0.05,1.04,0.13,43.34
9,-0.05,0.96,0.12,43.12
9,-0.02,0.96,0.12,41.47
9,-0.05,1.01,0.13,41.47
9,-0.02,1.00,0.11,44.77
9,-0.02,1.00,0.12,48.70
9,-0.02,0.98,0.12,48.70
9,-0.05,1.03,0.15,43.07
9,-0.05,1.03,0.12,43.31
9,-0.02,0.97,0.12,43.62
9,-0.02,1.00,0.13,45.19
9,-0.02,1.03,0.13,45.60
9,-0.03,1.03,0.13,44.83
9,-0.02,0.96,0.12,44.83
9,-0.05,1.03,0.14,48.48
9,-0.05,1.03,0.13,40.39
9,-0.02,0.99,0.13,40.39
9,-0.02,0.99,0.13,42.98
9,-0.02,0.99,0.13,45.60
9,-0.04,1.03,0.13,45.88
9,-0.00,0.97,0.11,39.61
9,-0.00,0.95,0.12,40.91
9,-0.04,1.01,0.12,43.10
9,-0.03,1.01,0.12,43.10
9,-0.03,0.97,0.13,46.85
9,-0.01,0.97,0.14,41.52
9,-0.05,1.03,0.14,41.52
9,-0.01,0.99,0.12,45.28
9,-0.01,0.99,0.13,41.27
9,-0.03,0.99,0.13,41.27
9,-0.04,1.03,0.12,42.95
9,-0.04,1.03,0.12,49.16
9,-0.00,0.96,0.12,48.53
9,-0.05,1.01,0.14,45.40
9,-0.05,1.00,0.11,44.32
9,-0.02,1.00,0.11,48.04
9,-0.02,0.98,0.13,48.04
9,-0.06,1.04,0.14,45.65
9,-0.06,1.04,0.11,45.94
9,-0.03,0.97,0.11,45.94
9,-0.05,1.00,0.13,45.09
9,-0.05,1.02,0.12,47.76
9,-0.03,1.02,0.12,47.73
9,-0.01,0.97,0.11,44.60
9,-0.01,1.03,0.14,41.70
9,-0.05,1.03,0.14,46.01
9,-0.02,0.99,0.11,46.01
9,-0.02,0.99,0.12,39.77
9,-0.02,0.99,0.12,45.32
9,-0.04,1.03,0.12,45.32
9,-0.01,0.96,0.12,48.13
9,-0.01,0.96,0.14,46.08
9,-0.05,1.01,0.14,45.99
9,-0.01,1.01,0.12,44.43
9,-0.01,0.98,0.13,40.50
9,-0.01,0.98,0.13,41.04
9,-0.05,1.04,0.14,41.04
9,-0.03,0.98,0.12,43.05
9,-0.03,0.98,0.07,44.95
9,-0.04,1.00,0.14,44.95
9,-0.04,1.03,0.12,44.20
9,-0.04,1.03,0.11,47.72
9,-0.01,0.96,0.11,48.37
9,-0.05,1.03,0.13,42.11
9,-0.05,1.05,0.12,46.18
9,-0.02,0.99,0.12,48.22
9,-0.02,0.98,0.12,48.22
9,-0.02,1.04,0.13,45.10
9,-0.04,1.04,0.17,40.60
9,-0.01,0.96,0.11,40.60
9,-0.05,1.01,0.14,44.61
9,-0.05,1.01,0.12,41.59
9,-0.03,1.01,0.12,41.59
9,-0.01,0.98,0.14,40.25
9,-0.01,0.97,0.13,47.66
9,-0.05,1.03,0.13,47.58
9,-0.01,0.97,0.11,49.15
9,-0.01,1.00,0.12,42.43
9,-0.03,1.00,0.12,45.43
9,-0.03,1.03,0.12,45.43
9,-0.01,0.97,0.12,43.25
9,-0.01,0.97,0.15,44.10
9,-0.05,1.03,0.15,44.10
9,-0.03,1.00,0.12,45.24
9,-0.03,0.98,0.13,40.63
9,-0.01,0.98,0.13,39.93
9,-0.04,1.03,0.14,38.36
9,-0.04,0.97,0.13,42.81
9,-0.01,0.97,0.13,40.43
9,-0.04,1.01,0.15,40.43
9,-0.03,1.01,0.12,44.87
9,-0.03,1.01,0.12,45.60
9,-0.01,0.97,0.12,45.60
9,-0.05,1.03,0.13,42.75
9,-0.05,1.03,0.12,41.59
9,-0.02,0.99,0.12,41.64
9,-0.03,1.00,0.13,39.29
9,-0.03,0.98,0.12,42.85
9,-0.02,1.04,0.12,43.05
9,-0.00,0.97,0.12,43.05
9,-0.05,1.02,0.14,42.23
9,-0.05,1.02,0.18,39.02
9,-0.02,1.00,0.12,39.02
9,-0.02,0.99,0.12,39.79
9,-0.02,0.99,0.13,44.68
9,-0.04,1.03,0.13,44.68
9,-0.02,0.97,0.12,41.75
9,-0.02,0.94,0.14,42.85
9,-0.04,1.00,0.14,43.81
9,-0.03,1.03,0.13,43.81
9,-0.03,0.97,0.11,47.44
9,0.00,0.97,0.08,47.93
9,-0.05,1.04,0.14,47.93
9,-0.02,0.99,0.11,43.66
9,-0.02,0.99,0.12,48.48
9,-0.02,0.99,0.12,48.48
9,-0.04,1.04,0.13,40.58
9,-0.04,1.03,0.12,42.32
9,-0.01,0.97,0.12,42.62
9,-0.05,1.02,0.14,44.97
9,-0.05,1.02,0.10,41.64
9,-0.03,1.02,0.10,41.36
9,-0.02,0.98,0.13,41.36
9,-0.05,1.04,0.12,41.57
9,-0.05,1.04,0.11,44.41
9,-0.02,0.98,0.11,44.41
9,-0.03,1.00,0.13,43.19
9,-0.03,0.96,0.12,43.94
9,-0.03,1.02,0.12,43.80
9,-0.00,0.97,0.13,46.15
9,-0.00,1.02,0.15,42.49
9,-0.05,1.02,0.15,47.67
9,-0.01,0.99,0.12,47.67
9,-0.02,0.99,0.13,44.98
9,-0.02,0.99,0.13,42.44
9,-0.04,1.03,0.13,42.44
9,-0.02,0.98,0.11,42.20
9,-0.02,0.98,0.13,40.43
9,-0.05,1.01,0.13,40.49
9,-0.03,1.02,0.12,45.97
9,-0.03,1.03,0.12,44.53
9,-0.02,0.97,0.12,45.12
9,-0.05,1.04,0.14,45.12
9,-0.05,0.98,0.10,43.81
9,-0.02,0.98,0.08,41.21
9,-0.03,0.99,0.14,41.21
9,-0.03,1.03,0.12,47.27
9,-0.03,1.03,0.11,40.41
9,-0.01,0.97,0.11,40.41
9,-0.04,1.02,0.14,43.64
9,-0.04,1.00,0.11,44.09
9,-0.02,1.00,0.11,44.20
9,-0.02,0.98,0.13,45.77
9,-0.02,1.03,0.14,48.28
9,-0.05,1.03,0.18,44.67
9,-0.02,0.97,0.11,44.67
9,-0.04,1.01,0.14,45.28
9,-0.04,1.01,0.12,46.12
9,-0.03,1.01,0.12,46.12
9,-0.01,0.98,0.12,44.55
9,-0.01,0.96,0.14,45.40
9,-0.05,1.02,0.14,45.94
9,-0.02,0.98,0.12,41.24
9,-0.02,0.99,0.12,43.16
9,-0.03,0.99,0.12,45.04
9,-0.04,1.04,0.13,45.04
9,-0.01,0.96,0.12,41.76
9,-0.01,0.96,0.08,43.30
9,-0.05,1.01,0.14,43.30
9,-0.03,1.00,0.11,42.94
9,-0.03,1.04,0.14,44.48
9,-0.01,0.98,0.14,44.57
9,-0.04,1.04,0.13,43.79
9,-0.04,0.98,0.12,39.93
9,-0.01,0.98,0.12,40.52
9,-0.03,1.00,0.13,40.52
9,-0.04,1.02,0.12,42.59
9,-0.04,1.02,0.12,45.90
9,-0.01,0.97,0.12,45.90
9,-0.04,1.02,0.14,43.00
9,-0.04,1.02,0.12,45.25
9,-0.03,0.99,0.12,44.72
9,-0.03,0.99,0.12,43.15
9,-0.03,0.97,0.12,45.95
9,-0.04,1.03,0.12,46.46
9,-0.02,0.97,0.12,46.46
9,-0.02,1.02,0.13,45.60
9,-0.05,1.02,0.18,40.66
10,-0.03,0.97,0.13,48.18
10,-0.02,0.98,0.11,45.87
10,-0.03,0.99,0.14,46.02
10,-0.03,0.99,0.13,42.67
10,-0.03,1.04,0.13,42.67
10,-0.02,0.97,0.13,48.43
10,-0.02,0.97,0.13,46.05
10,-0.05,1.01,0.13,45.49
10,-0.03,1.01,0.12,42.36
10,-0.03,1.03,0.12,43.00
10,-0.01,0.97,0.12,42.26
10,-0.05,1.03,0.13,42.26
10,-0.03,0.97,0.12,41.04
10,-0.03,0.97,0.06,37.58
10,-0.03,1.00,0.13,37.58
10,-0.03,1.02,0.13,40.01
10,-0.03,1.02,0.11,43.39
10,-0.01,0.98,0.11,43.39
10,-0.05,1.03,0.13,39.44
10,-0.05,1.05,0.12,43.36
10,-0.02,0.99,0.12,43.13
10,-0.02,0.99,0.12,43.13
10,-0.02,1.03,0.13,38.49
10,-0.03,1.03,0.13,39.18
10,-0.01,0.97,0.12,39.18
10,-0.04,1.02,0.13,49.00
10,-0.04,1.02,0.17,42.22
10,-0.02,1.02,0.11,42.22
10,-0.01,0.98,0.12,45.09
10,-0.01,0.97,0.15,44.01
10,-0.05,1.03,0.15,44.34
10,-0.02,0.98,0.11,43.55
10,-0.02,0.99,0.12,39.03
10,-0.03,0.99,0.12,43.67
10,-0.03,1.03,0.13,43.67
10,-0.01,0.97,0.13,40.57
10,-0.01,0.97,0.14,42.63
10,-0.05,1.02,0.14,42.63
10,-0.02,0.99,0.13,42.30
10,-0.02,0.99,0.13,42.44
10,-0.01,0.98,0.13,42.73
10,-0.04,1.04,0.13,41.95
10,-0.04,1.03,0.12,38.94
10,-0.02,0.97,0.12,45.02
10,-0.04,1.01,0.13,45.02
10,-0.04,1.01,0.11,40.12
10,-0.03,1.01,0.06,40.97
10,-0.01,0.97,0.13,40.97
10,-0.04,1.04,0.13,44.52
10,-0.04,1.04,0.12,42.45
10,-0.02,0.98,0.12,42.45
10,-0.02,0.99,0.13,50.51
10,-0.02,0.97,0.12,43.85
10,-0.03,1.03,0.12,44.41
10,-0.02,0.97,0.12,45.98
10,-0.02,1.02,0.14,45.66
10,-0.05,1.02,0.14,44.34
10,-0.02,1.00,0.12,44.34
10,-0.02,0.97,0.11,41.05
10,-0.02,0.97,0.07,46.98
10,-0.05,1.03,0.14,46.98
10,-0.01,0.97,0.13,40.71
10,-0.01,0.97,0.13,46.81
10,-0.04,1.00,0.13,46.69
10,-0.03,1.02,0.13,47.47
10,-0.03,1.04,0.12,43.89
10,-0.01,0.98,0.12,45.33
10,-0.05,1.02,0.13,45.33
10,-0.02,0.99,0.12,48.27
10,-0.02,0.99,0.07,43.34
10,-0.03,0.99,0.13,43.34
10,-0.04,1.04,0.12,41.79
10,-0.04,1.04,0.13,44.07
10,-0.02,0.97,0.13,44.07
10,-0.04,1.02,0.13,42.81
10,-0.04,1.00,0.12,43.14
10,-0.02,1.00,0.12,43.19
10,-0.02,0.98,0.13,47.89
10,-0.02,1.03,0.13,42.77
10,-0.05,1.03,0.13,42.99
10,-0.02,0.97,0.11,42.99
10,-0.03,1.00,0.13,41.28
10,-0.03,1.00,0.19,43.30
10,-0.03,1.02,0.12,43.30
10,-0.01,0.97,0.13,40.70
10,-0.01,0.96,0.14,49.27
10,-0.05,1.02,0.14,48.76
10,-0.02,1.00,0.11,43.27
10,-0.02,0.98,0.13,41.74
10,-0.02,0.98,0.13,41.54
10,-0.04,1.04,0.13,41.54
10,-0.02,0.97,0.12,43.59
10,-0.02,0.97,0.07,43.69
10,-0.04,1.01,0.13,43.69
10,-0.02,1.01,0.12,42.19
10,-0.02,1.01,0.12,39.74
10,-0.02,0.98,0.12,39.48
10,-0.05,1.02,0.14,42.61
10,-0.05,1.05,0.12,45.55
10,-0.02,0.99,0.12,42.69
10,-0.03,1.00,0.12,42.69
10,-0.03,1.03,0.14,41.33
10,-0.03,1.03,0.18,44.63
10,-0.01,0.97,0.12,44.63
10,-0.05,1.02,0.14,44.69
10,-0.05,1.02,0.12,41.90
10,-0.02,1.00,0.12,41.90
10,-0.02,0.97,0.13,40.56
10,-0.02,0.97,0.14,40.36
10,-0.05,1.03,0.14,40.32
10,-0.02,0.97,0.12,43.45
10,-0.02,1.01,0.13,44.68
10,-0.03,1.01,0.13,41.40
10,-0.03,1.02,0.12,41.40
10,-0.02,0.97,0.12,45.35
10,-0.02,0.97,0.08,45.28
10,-0.06,1.03,0.14,45.28
10,-0.02,0.99,0.11,45.86
10,-0.02,0.99,0.13,43.19
10,-0.02,0.99,0.13,43.72
10,-0.04,1.03,0.13,40.59
10,-0.04,1.04,0.12,46.33
10,-0.02,0.97,0.12,44.24
10,-0.05,1.01,0.13,44.24
10,-0.01,1.01,0.12,46.81
10,-0.01,1.01,0.07,40.51
10,-0.02,0.98,0.13,40.51
10,-0.04,1.04,0.13,42.71
10,-0.04,1.04,0.13,41.42
10,-0.02,0.98,0.13,41.42
10,-0.03,1.00,0.13,42.83
10,-0.03,1.02,0.12,43.34
10,-0.03,1.02,0.12,43.79
10,-0.01,0.97,0.12,38.30
10,-0.01,1.03,0.14,42.30
10,-0.06,1.03,0.14,44.68
10,-0.02,0.99,0.12,44.68
10,-0.02,0.99,0.12,46.12
10,-0.02,0.99,0.13,43.14
10,-0.03,1.03,0.13,43.14
10,-0.02,0.97,0.12,45.49
10,-0.02,0.95,0.13,48.29
10,-0.04,1.01,0.13,48.09
10,-0.01,1.00,0.12,42.61
10,-0.01,0.98,0.12,44.14
10,-0.02,0.98,0.12,42.39
10,-0.05,1.03,0.12,42.39
10,-0.02,0.99,0.11,48.02
10,-0.02,0.99,0.07,44.56
10,-0.03,1.00,0.13,44.56
10,-0.04,1.03,0.13,49.80
10,-0.04,1.03,0.12,43.33
10,-0.02,0.97,0.12,43.33
10,-0.05,1.03,0.13,41.34
10,-0.05,1.06,0.12,42.77
10,-0.02,1.00,0.12,40.21
10,-0.03,0.98,0.13,40.21
10,-0.03,1.03,0.13,43.40
10,-0.04,1.03,0.18,44.60
10,-0.02,0.97,0.12,44.60
10,-0.04,1.00,0.13,41.16
10,-0.04,1.00,0.13,44.65
10,-0.03,1.00,0.13,44.65
10,-0.02,0.98,0.11,45.49
10,-0.02,0.97,0.13,42.37
10,-0.06,1.03,0.13,42.43
10,-0.02,0.99,0.11,43.99
10,-0.02,0.99,0.13,42.35
10,-0.03,0.99,0.13,43.08
10,-0.03,1.03,0.14,43.08
10,-0.02,0.97,0.12,45.85
10,-0.02,0.97,0.08,40.03
10,-0.04,1.02,0.14,40.03
10,-0.02,1.00,0.11,45.58
10,-0.02,1.00,0.12,47.89
10,-0.02,0.98,0.12,47.89
10,-0.05,1.03,0.14,40.84
10,-0.05,1.04,0.13,43.75
10,-0.02,0.98,0.13,41.30
10,-0.03,1.01,0.13,41.30
10,-0.03,1.02,0.12,42.17
10,-0.02,1.02,0.12,43.36
10,-0.02,0.99,0.12,43.36
10,-0.05,1.02,0.13,44.21
10,-0.05,1.02,0.13,39.58
10,-0.02,0.99,0.13,39.58
10,-0.02,0.98,0.14,43.23
10,-0.02,0.97,0.12,43.92
10,-0.04,1.03,0.12,43.93
10,-0.02,0.96,0.12,43.15
10,-0.02,1.02,0.14,45.58
10,-0.05,1.02,0.14,43.93
10,-0.03,1.02,0.12,43.93
10,-0.01,0.99,0.12,45.69
10,-0.01,0.99,0.13,43.49
10,-0.05,1.03,0.13,43.49
10,-0.02,0.98,0.12,41.50
10,-0.02,1.00,0.13,44.19
10,-0.04,1.00,0.13,44.14
10,-0.03,1.02,0.13,43.35
11,-0.01,0.97,0.12,37.59
11,-0.04,1.01,0.13,37.59
11,-0.02,1.02,0.11,41.41
11,-0.02,1.02,0.07,47.40
11,-0.02,0.97,0.13,47.40
11,-0.05,1.03,0.13,44.21
11,-0.05,1.03,0.12,46.78
11,-0.02,0.97,0.12,46.88
11,-0.02,1.00,0.13,42.18
11,-0.02,0.95,0.13,42.63
11,-0.03,1.02,0.13,44.69
11,-0.02,0.96,0.13,44.69
11,-0.02,1.03,0.13,43.23
11,-0.04,1.03,0.13,39.59
11,-0.02,1.00,0.13,39.59
11,-0.02,0.99,0.13,42.60
11,-0.02,0.99,0.14,41.66
11,-0.04,1.03,0.14,41.66
11,-0.01,0.98,0.13,45.59
11,-0.01,0.94,0.13,40.09
11,-0.03,1.00,0.13,40.58
11,-0.03,1.02,0.12,43.71
11,-0.03,0.97,0.12,45.08
11,-0.02,0.97,0.12,43.53
11,-0.05,1.03,0.12,43.53
11,-0.01,0.98,0.11,44.02
11,-0.01,0.98,0.07,44.46
11,-0.03,0.99,0.13,44.46
11,-0.05,1.04,0.13,42.91
11,-0.05,1.04,0.11,44.51
11,-0.02,0.97,0.11,44.04
11,-0.05,1.02,0.13,41.69
11,-0.05,1.01,0.12,43.64
11,-0.02,1.01,0.12,43.77
11,-0.01,0.99,0.12,43.77
11,-0.05,1.03,0.13,46.57
11,-0.05,1.03,0.18,40.89
11,-0.02,0.97,0.12,40.89
11,-0.03,1.00,0.13,44.76
11,-0.03,1.00,0.12,42.87
11,-0.03,1.02,0.12,42.27
11,-0.02,0.97,0.13,43.83
11,-0.02,0.96,0.14,45.07
11,-0.05,1.02,0.14,45.54
11,-0.03,0.99,0.13,45.54
11,-0.03,0.99,0.14,43.50
11,-0.02,0.99,0.13,51.39
11,-0.03,1.02,0.13,51.39
11,-0.01,0.98,0.12,42.78
11,-0.01,0.98,0.13,41.58
11,-0.04,1.00,0.13,41.58
11,-0.02,1.01,0.12,41.14
11,-0.02,1.04,0.11,45.55
11,-0.02,0.98,0.11,45.71
11,-0.05,1.02,0.14,41.79
11,-0.05,0.98,0.12,40.02
11,-0.00,0.98,0.12,47.09
11,-0.03,1.00,0.13,47.09
11,-0.04,1.03,0.12,48.52
11,-0.04,1.03,0.12,44.72
11,-0.01,0.96,0.12,44.72
11,-0.05,1.02,0.14,44.61
11,-0.05,1.02,0.12,45.40
11,-0.01,1.00,0.12,45.81
11,-0.02,0.98,0.12,42.67
11,-0.02,0.96,0.14,38.72
11,-0.05,1.03,0.14,46.43
11,-0.02,0.98,0.12,46.43
11,-0.02,1.01,0.13,43.08
11,-0.04,1.01,0.17,43.63
11,-0.02,1.02,0.11,43.63
11,-0.02,0.98,0.12,50.64
11,-0.02,0.98,0.14,41.66
11,-0.05,1.02,0.14,41.66
11,-0.01,0.98,0.13,49.22
11,-0.01,0.99,0.13,41.72
11,-0.03,0.99,0.13,41.98
11,-0.04,1.03,0.13,47.47
11,-0.04,0.97,0.11,41.46
11,-0.02,0.97,0.11,42.22
11,-0.04,1.02,0.13,42.22
11,-0.02,1.00,0.12,41.30
11,-0.02,1.00,0.07,48.41
11,-0.01,0.98,0.13,48.41
11,-0.03,1.04,0.14,38.73
11,-0.03,1.04,0.12,43.30
11,-0.02,0.98,0.12,43.26
11,-0.04,1.00,0.13,40.91
11,-0.04,1.02,0.12,41.73
11,-0.03,1.02,0.12,42.44
11,-0.02,0.97,0.12,42.44
11,-0.05,1.02,0.12,43.83
11,-0.05,1.02,0.06,39.83
11,-0.03,0.99,0.13,39.83
11,-0.03,0.99,0.12,45.41
11,-0.03,0.99,0.12,48.35
11,-0.04,1.02,0.12,48.35
11,-0.01,0.97,0.12,45.16
11,-0.01,0.95,0.11,42.13
11,-0.04,1.02,0.11,43.70
11,-0.02,1.00,0.10,43.70
11,-0.02,0.98,0.13,44.03
11,-0.02,0.98,0.13,48.22
11,-0.04,1.03,0.13,48.22
11,-0.02,0.97,0.12,43.83
11,-0.02,0.97,0.13,44.97
11,-0.04,0.99,0.13,44.97
11,-0.04,1.02,0.13,44.74
11,-0.04,1.04,0.12,40.90
11,-0.01,0.97,0.12,40.85
11,-0.05,1.03,0.13,41.63
11,-0.05,0.99,0.13,44.13
11,-0.02,0.99,0.13,41.28
11,-0.02,0.99,0.13,41.28
11,-0.05,1.03,0.13,44.81
11,-0.05,1.03,0.18,40.95
11,-0.02,0.97,0.12,40.95
11,-0.04,1.01,0.14,46.26
11,-0.04,1.01,0.13,42.96
11,-0.02,1.01,0.13,42.32
11,-0.02,0.97,0.13,43.10
11,-0.02,0.97,0.13,41.18
11,-0.05,1.03,0.13,39.72
11,-0.02,0.98,0.12,39.72
11,-0.02,0.99,0.13,43.89
11,-0.03,0.99,0.19,43.70
11,-0.03,1.02,0.12,43.70
11,-0.01,0.96,0.12,45.59
11,-0.01,0.96,0.14,42.85
11,-0.04,1.03,0.14,42.85
11,-0.02,0.99,0.13,43.83
11,-0.02,0.99,0.13,44.84
11,-0.02,0.99,0.13,45.06
11,-0.05,1.04,0.14,39.58
11,-0.05,0.98,0.11,44.42
11,-0.01,0.98,0.11,44.77
11,-0.03,1.01,0.13,44.77
11,-0.03,1.01,0.11,45.30
11,-0.03,1.01,0.06,45.66
11,-0.01,0.98,0.13,45.66
11,-0.04,1.03,0.14,47.22
11,-0.04,1.04,0.11,42.31
11,-0.01,0.98,0.11,42.63
11,-0.03,0.99,0.12,44.98
11,-0.03,1.03,0.13,47.01
11,-0.04,1.03,0.13,41.85
11,-0.02,0.97,0.12,41.85
11,-0.04,1.02,0.14,42.69
11,-0.04,1.02,0.18,42.38
11,-0.03,1.01,0.12,42.38
11,-0.02,0.98,0.13,43.83
11,-0.02,0.98,0.13,37.91
11,-0.04,1.03,0.13,37.91
11,-0.01,0.98,0.12,40.90
11,-0.01,1.00,0.13,38.92
11,-0.04,1.00,0.13,42.96
11,-0.03,1.02,0.12,42.96
11,-0.03,0.98,0.13,46.44
11,-0.01,0.98,0.14,44.93
11,-0.05,1.02,0.14,44.93
11,-0.03,0.99,0.13,46.03
11,-0.03,0.99,0.13,42.28
11,-0.02,0.99,0.13,42.28
11,-0.04,1.03,0.12,37.91
11,-0.04,1.03,0.12,42.98
11,-0.02,0.96,0.12,42.60
11,-0.05,1.02,0.14,47.30
11,-0.05,1.01,0.11,43.04
11,-0.03,1.01,0.11,41.18
11,-0.01,0.98,0.12,41.18
11,-0.04,1.03,0.13,42.96
11,-0.04,1.03,0.17,41.98
11,-0.01,0.98,0.11,41.98
11,-0.04,1.00,0.14,45.84
11,-0.04,1.00,0.12,40.41
11,-0.04,1.02,0.12,40.24
11,-0.02,0.96,0.11,41.81
11,-0.02,0.96,0.13,44.27
11,-0.05,1.02,0.13,43.43
11,-0.03,0.99,0.11,43.43
11,-0.03,0.98,0.13,42.60
11,-0.02,0.98,0.13,45.10
11,-0.05,1.03,0.13,45.10
11,-0.02,0.97,0.11,48.82
11,-0.02,0.97,0.13,45.06
11,-0.04,1.00,0.13,45.06
11,-0.02,1.01,0.11,44.77
11,-0.02,1.04,0.13,40.88
11,-0.01,0.98,0.13,40.73
11,-0.04,1.03,0.14,47.78
11,-0.04,0.99,0.11,46.81
11,-0.03,0.99,0.11,46.44
11,-0.03,0.99,0.12,46.44
11,-0.03,1.02,0.12,41.96
11,-0.03,1.02,0.12,43.69
11,-0.02,0.98,0.12,43.69
11,-0.05,1.02,0.14,42.01
11,-0.05,1.06,0.12,43.85
11,-0.02,1.00,0.12,44.32
11,-0.02,0.98,0.12,46.67
11,-0.02,1.03,0.14,44.30
11,-0.03,1.03,0.14,44.62
11,-0.01,0.98,0.11,44.62
11,-0.05,1.00,0.13,45.42
11,-0.05,1.00,0.18,43.18
11,-0.04,1.02,0.12,43.18
11,-0.01,0.99,0.12,43.60
11,-0.01,0.99,0.14,48.76
11,-0.05,1.02,0.14,48.76
11,-0.01,0.99,0.12,46.00
11,-0.01,0.99,0.12,45.32
11,-0.02,0.99,0.12,45.88
11,-0.04,1.03,0.12,45.88
11,-0.04,0.97,0.11,50.26
11,-0.02,0.97,0.07,43.04
11,-0.04,1.02,0.13,43.04
11,-0.03,1.01,0.13,44.98
11,-0.03,1.01,0.12,40.52
11,-0.02,0.97,0.12,40.52
11,-0.04,1.04,0.14,45.88
11,-0.04,1.04,0.11,44.82
11,-0.02,0.98,0.11,45.24
11,-0.02,1.00,0.13,42.11
11,-0.02,1.01,0.12,44.16
11,-0.03,1.01,0.12,44.56
11,-0.01,0.97,0.11,44.56
11,-0.05,1.02,0.14,43.56
11,-0.05,1.02,0.13,45.03
11,-0.02,0.99,0.13,45.03
11,-0.02,0.99,0.13,46.37
11,-0.02,0.99,0.14,40.37
11,-0.04,1.03,0.14,40.44
11,-0.01,0.98,0.11,39.65
12,-0.03,1.00,0.13,43.19
12,-0.03,1.02,0.13,40.06
12,-0.03,0.97,0.12,41.80
12,-0.01,0.97,0.12,45.53
12,-0.04,1.03,0.13,45.53
12,-0.02,1.00,0.10,44.40
12,-0.02,1.00,0.06,45.32
12,-0.01,0.99,0.13,45.32
12,-0.03,1.02,0.13,45.73
12,-0.03,1.02,0.12,38.17
12,-0.02,0.97,0.12,37.78
12,-0.04,1.01,0.14,41.70
12,-0.04,1.01,0.13,46.57
12,-0.03,1.01,0.13,42.94
12,-0.01,0.97,0.13,42.94
12,-0.04,1.03,0.12,47.82
12,-0.04,1.03,0.11,46.58
12,-0.02,0.98,0.11,46.58
12,-0.03,0.99,0.14,43.06
12,-0.03,0.99,0.12,43.25
12,-0.04,1.03,0.12,43.25
12,-0.02,0.97,0.11,42.11
12,-0.02,0.96,0.14,48.67
12,-0.05,1.02,0.14,48.71
12,-0.03,1.00,0.12,45.57
12,-0.03,0.98,0.12,41.65
12,-0.01,0.98,0.12,45.78
12,-0.04,1.03,0.14,45.78
12,-0.02,0.97,0.12,42.63
12,-0.02,0.97,0.13,38.98
12,-0.04,1.00,0.13,38.98
12,-0.03,1.01,0.13,40.96
12,-0.03,1.03,0.12,47.77
12,-0.00,0.97,0.12,48.31
12,-0.06,1.02,0.14,38.91
12,-0.06,0.99,0.12,40.78
12,-0.02,0.99,0.12,41.64
12,-0.02,0.98,0.12,41.64
12,-0.03,1.03,0.13,46.10
12,-0.03,1.03,0.19,44.91
12,-0.01,0.98,0.12,44.91
12,-0.04,1.02,0.15,44.64
12,-0.04,1.02,0.12,40.31
12,-0.02,1.00,0.12,39.98
12,-0.03,0.98,0.12,44.68
12,-0.03,0.97,0.13,44.74
12,-0.04,1.03,0.13,45.62
12,-0.02,0.97,0.13,45.62
12,-0.02,1.00,0.13,41.29
12,-0.03,1.00,0.18,41.77
12,-0.04,1.01,0.11,41.77
12,-0.02,0.98,0.13,43.28
12,-0.02,0.98,0.14,45.35
12,-0.05,1.02,0.14,45.35
12,-0.03,0.99,0.12,43.46
12,-0.03,0.99,0.12,41.29
12,-0.02,0.99,0.12,40.90
12,-0.04,1.03,0.12,44.82
12,-0.04,0.98,0.12,42.86
12,-0.01,0.98,0.12,43.77
12,-0.03,1.01,0.14,43.77
12,-0.03,1.01,0.11,44.35
12,-0.03,1.01,0.07,43.26
12,-0.01,0.99,0.13,43.26
12,-0.05,1.02,0.13,38.83
12,-0.05,1.02,0.12,42.84
12,-0.02,0.99,0.12,42.81
12,-0.04,0.99,0.14,43.59
12,-0.04,0.97,0.12,47.47
12,-0.03,1.03,0.12,39.87
12,-0.02,0.98,0.13,39.87
12,-0.02,1.01,0.14,40.44
12,-0.04,1.01,0.18,41.36
12,-0.03,1.00,0.11,41.36
12,-0.00,0.99,0.12,41.49
12,-0.00,0.99,0.13,40.76
12,-0.04,1.03,0.13,40.76
12,-0.02,0.97,0.12,43.70
12,-0.02,0.94,0.14,49.97
12,-0.03,1.00,0.14,50.01
12,-0.02,1.02,0.12,39.05
12,-0.02,0.98,0.11,45.91
12,-0.02,0.98,0.11,41.22
12,-0.05,1.02,0.13,41.22
12,-0.02,0.99,0.11,43.96
12,-0.02,0.99,0.07,43.13
12,-0.02,0.99,0.13,43.13
12,-0.04,1.02,0.13,41.05
12,-0.04,1.04,0.12,44.25
12,-0.01,0.97,0.12,44.30
12,-0.05,1.01,0.13,38.82
12,-0.05,1.00,0.11,42.59
12,-0.02,1.00,0.11,46.00
12,-0.02,0.98,0.12,46.00
12,-0.05,1.03,0.13,43.92
12,-0.05,1.03,0.18,40.92
12,-0.02,0.98,0.12,40.92
12,-0.04,1.00,0.14,40.67
12,-0.04,1.00,0.13,43.94
12,-0.03,1.02,0.13,43.94
12,-0.02,0.97,0.13,42.95
12,-0.02,0.96,0.13,44.48
12,-0.04,1.03,0.13,45.03
12,-0.02,0.98,0.13,45.03
12,-0.02,0.98,0.12,40.72
12,-0.03,0.98,0.07,41.55
12,-0.04,1.03,0.13,41.55
12,-0.02,0.98,0.12,43.51
12,-0.02,0.98,0.13,44.64
12,-0.04,1.01,0.13,44.64
12,-0.03,1.00,0.12,40.19
12,-0.03,1.04,0.13,43.16
12,-0.03,0.97,0.13,43.55
12,-0.05,1.03,0.14,41.20
12,-0.05,0.98,0.12,45.37
12,-0.02,0.98,0.12,42.14
12,-0.03,1.01,0.13,42.14
12,-0.02,1.03,0.12,44.10
12,-0.02,1.03,0.07,47.17
12,-0.01,0.98,0.13,47.17
12,-0.04,1.02,0.14,41.35
12,-0.04,1.02,0.12,39.98
12,-0.01,1.00,0.12,40.40
12,-0.03,0.99,0.13,42.75
12,-0.03,0.97,0.14,40.41
12,-0.04,1.03,0.14,43.76
12,-0.02,0.97,0.13,43.76
12,-0.03,1.01,0.13,43.90
12,-0.03,1.01,0.18,40.89
12,-0.03,1.01,0.12,40.89
12,-0.02,0.98,0.12,46.90
12,-0.02,0.98,0.13,48.90
12,-0.04,1.03,0.13,48.90
12,-0.03,0.98,0.13,45.48
12,-0.03,0.99,0.13,47.80
12,-0.03,0.99,0.13,48.12
12,-0.03,1.02,0.11,41.06
12,-0.03,0.97,0.12,42.46
12,-0.02,0.97,0.12,46.99
12,-0.04,1.02,0.13,46.99
12,-0.02,1.01,0.11,43.09
12,-0.02,1.01,0.07,41.62
12,-0.01,0.98,0.13,41.62
12,-0.04,1.02,0.13,41.76
12,-0.04,1.04,0.12,45.83
12,-0.02,0.97,0.12,45.73
12,-0.03,1.01,0.13,41.81
12,-0.03,1.01,0.12,44.91
12,-0.03,1.01,0.12,48.19
12,-0.01,0.97,0.12,48.19
12,-0.04,1.02,0.13,44.25
12,-0.04,1.02,0.18,43.89
12,-0.01,0.99,0.12,43.89
12,-0.02,0.99,0.13,44.10
12,-0.02,0.99,0.14,49.75
12,-0.04,1.03,0.14,49.75
12,-0.02,0.97,0.13,42.88
12,-0.02,0.94,0.13,39.77
12,-0.04,1.01,0.13,42.84
12,-0.02,1.00,0.12,42.84
12,-0.02,0.99,0.13,39.93
12,-0.01,0.99,0.14,41.98
12,-0.05,1.02,0.14,41.98
12,-0.02,0.98,0.13,43.08
12,-0.02,0.98,0.13,43.09
12,-0.03,1.00,0.13,43.09
12,-0.03,1.02,0.11,44.08
12,-0.03,1.03,0.13,42.49
12,-0.02,0.97,0.13,42.60
12,-0.05,1.01,0.13,40.25
12,-0.05,0.99,0.12,47.97
12,-0.02,0.99,0.12,37.94
12,-0.02,0.99,0.13,37.94
12,-0.04,1.04,0.13,46.14
12,-0.04,1.04,0.19,47.67
12,-0.02,0.98,0.12,47.67
12,-0.03,1.01,0.13,42.68
12,-0.03,1.01,0.12,40.73
12,-0.03,1.00,0.12,41.28
12,-0.02,0.99,0.12,42.84
12,-0.02,0.97,0.12,46.58
12,-0.04,1.03,0.12,44.83
12,-0.03,0.98,0.12,44.83
12,-0.03,0.99,0.14,42.08
12,-0.02,0.99,0.13,41.17
12,-0.03,1.02,0.13,41.17
12,-0.01,0.98,0.12,42.47
12,-0.01,0.98,0.14,44.16
12,-0.04,1.02,0.14,44.16
12,-0.02,1.00,0.12,38.49
12,-0.02,0.99,0.13,42.89
12,-0.02,0.99,0.13,42.89
12,-0.04,1.03,0.13,40.54
12,-0.04,0.98,0.12,38.09
12,-0.02,0.98,0.07,42.56
12,-0.05,1.00,0.14,42.56
12,-0.03,1.02,0.12,45.84
12,-0.03,1.02,0.12,46.53
12,-0.02,0.97,0.12,46.53
12,-0.04,1.02,0.14,42.67
12,-0.04,1.04,0.12,40.53
12,-0.02,0.98,0.12,40.51
12,-0.03,0.99,0.13,46.78
12,-0.03,1.02,0.12,39.99
12,-0.04,1.02,0.12,39.24
12,-0.01,0.98,0.11,39.24
12,-0.04,1.02,0.13,46.66
12,-0.04,1.02,0.18,42.23
12,-0.02,1.01,0.11,42.23
12,-0.01,0.99,0.13,46.72
12,-0.01,0.99,0.13,41.57
12,-0.04,1.03,0.13,42.22
12,-0.01,0.97,0.12,46.92
12,-0.01,0.94,0.13,45.64
12,-0.04,1.01,0.13,44.48
12,-0.04,1.01,0.13,44.48
12,-0.04,0.98,0.12,45.18
12,-0.01,0.98,0.07,40.54
12,-0.05,1.02,0.13,40.54
12,-0.02,0.99,0.12,41.03
12,-0.02,0.99,0.14,45.99
12,-0.03,0.99,0.14,45.99
12,-0.03,1.03,0.12,47.93
12,-0.03,1.05,0.13,45.24
12,-0.02,0.99,0.13,44.71
12,-0.04,1.01,0.14,47.84
12,-0.04,1.00,0.12,43.20
12,-0.03,1.00,0.12,47.45
12,-0.02,0.99,0.12,47.45
12,-0.04,1.03,0.13,44.78
12,-0.04,1.03,0.18,43.90
12,-0.01,0.98,0.12,43.90
12,-0.04,0.99,0.13,43.30
13,-0.04,1.03,0.14,46.09
13,-0.01,0.99,0.13,47.97
13,-0.01,0.94,0.13,43.77
13,-0.04,1.00,0.13,43.33
13,-0.03,1.00,0.13,47.25
13,-0.03,0.98,0.12,48.86
13,-0.01,0.98,0.12,43.25
13,-0.05,1.02,0.13,43.25
13,-0.02,0.99,0.12,46.96
13,-0.02,0.99,0.07,41.74
13,-0.02,1.00,0.14,41.74
13,-0.04,1.01,0.13,40.74
13,-0.04,1.01,0.13,43.15
13,-0.02,0.98,0.13,43.61
13,-0.05,1.02,0.13,41.26
13,-0.05,1.01,0.12,41.77
13,-0.02,1.01,0.12,47.74
13,-0.02,0.98,0.12,47.74
13,-0.02,1.03,0.13,43.51
13,-0.04,1.03,0.17,46.86
13,-0.02,0.98,0.11,46.86
13,-0.04,1.00,0.13,44.74
13,-0.04,1.00,0.12,41.59
13,-0.03,1.01,0.12,41.59
13,-0.02,0.97,0.12,40.97
13,-0.02,0.97,0.13,45.85
13,-0.04,1.03,0.13,45.63
13,-0.03,0.99,0.13,41.71
13,-0.03,1.00,0.13,40.64
13,-0.03,1.00,0.13,43.88
13,-0.03,1.03,0.13,43.88
13,-0.02,0.97,0.11,47.57
13,-0.02,0.97,0.07,42.70
13,-0.05,1.02,0.14,42.70
13,-0.02,1.00,0.11,49.80
13,-0.02,1.05,0.13,38.88
13,-0.02,0.98,0.13,38.92
13,-0.05,1.03,0.13,42.84
13,-0.05,0.99,0.12,41.81
13,-0.02,0.99,0.12,44.07
13,-0.03,1.00,0.13,44.07
13,-0.03,1.02,0.13,42.20
13,-0.03,1.02,0.19,46.30
13,-0.02,0.97,0.12,46.30
13,-0.05,1.02,0.15,42.01
13,-0.05,1.02,0.12,44.20
13,-0.02,0.99,0.12,44.01
13,-0.02,0.99,0.13,44.80
13,-0.02,0.96,0.14,41.43
13,-0.04,1.02,0.14,52.47
13,-0.02,0.98,0.11,52.47
13,-0.02,1.02,0.13,36.07
13,-0.04,1.02,0.18,40.55
13,-0.03,1.01,0.11,40.55
13,-0.01,0.98,0.13,48.10
13,-0.01,0.98,0.14,48.38
13,-0.04,1.02,0.14,48.38
13,-0.01,0.98,0.13,50.97
13,-0.01,0.94,0.13,38.54
13,-0.03,1.00,0.13,39.05
13,-0.03,1.02,0.12,43.75
13,-0.03,0.98,0.12,46.73
13,-0.01,0.98,0.12,44.63
13,-0.03,1.01,0.12,44.63
13,-0.02,1.00,0.11,39.26
13,-0.02,1.00,0.07,40.90
13,-0.01,0.99,0.13,40.90
13,-0.04,1.02,0.13,41.85
13,-0.04,1.02,0.12,43.94
13,-0.01,0.98,0.12,44.49
13,-0.03,1.01,0.12,45.27
13,-0.03,1.02,0.12,41.78
13,-0.02,1.02,0.12,48.27
13,-0.02,0.98,0.12,48.27
13,-0.04,1.03,0.13,46.32
13,-0.04,1.03,0.18,43.52
13,-0.02,0.98,0.12,43.52
13,-0.03,0.99,0.12,41.51
13,-0.03,0.99,0.13,47.68
13,-0.03,1.02,0.13,47.68
13,-0.02,0.97,0.12,43.81
13,-0.02,0.96,0.12,41.86
13,-0.04,1.03,0.12,42.19
13,-0.03,1.00,0.12,39.84
13,-0.03,0.98,0.12,42.33
13,-0.01,0.98,0.07,39.94
13,-0.04,1.03,0.13,39.94
13,-0.03,0.97,0.12,40.86
13,-0.03,0.97,0.14,42.95
13,-0.04,1.00,0.14,42.95
13,-0.03,1.01,0.12,47.76
13,-0.03,1.05,0.13,44.54
13,-0.01,0.99,0.13,44.15
13,-0.05,1.01,0.14,46.50
13,-0.05,0.99,0.12,43.34
13,-0.03,0.99,0.12,41.83
13,-0.03,0.99,0.12,41.83
13,-0.04,1.02,0.12,41.08
13,-0.04,1.02,0.12,43.38
13,-0.02,0.97,0.12,43.38
13,-0.04,1.02,0.14,41.29
13,-0.04,1.02,0.12,43.68
13,-0.03,1.00,0.12,43.07
13,-0.02,0.99,0.13,50.12
13,-0.02,0.96,0.14,41.79
13,-0.05,1.02,0.14,41.28
13,-0.02,0.99,0.11,41.28
13,-0.02,1.00,0.13,43.94
13,-0.04,1.00,0.19,42.78
13,-0.03,1.02,0.12,42.78
13,-0.01,0.97,0.13,45.43
13,-0.01,0.97,0.13,46.55
13,-0.04,1.02,0.13,46.55
13,-0.02,0.99,0.12,47.22
13,-0.02,0.99,0.12,42.38
13,-0.02,0.99,0.12,42.30
13,-0.05,1.03,0.13,41.52
13,-0.05,0.98,0.12,40.77
13,-0.02,0.98,0.12,44.16
13,-0.04,1.00,0.14,44.16
13,-0.03,1.01,0.12,43.29
13,-0.03,1.01,0.12,45.24
13,-0.02,0.97,0.12,45.24
13,-0.05,1.02,0.13,41.59
13,-0.05,1.02,0.12,46.11
13,-0.02,0.99,0.12,45.98
13,-0.03,0.99,0.13,43.63
13,-0.03,0.95,0.11,46.45
13,-0.03,1.02,0.11,41.08
13,-0.01,0.99,0.12,41.08
13,-0.03,1.01,0.14,45.95
13,-0.03,1.01,0.18,39.05
13,-0.02,0.99,0.12,39.05
13,-0.02,0.99,0.12,40.52
13,-0.02,0.99,0.12,42.75
13,-0.04,1.03,0.12,42.75
13,-0.00,0.98,0.11,50.21
13,-0.00,0.95,0.13,41.49
13,-0.04,1.01,0.13,41.70
13,-0.03,1.00,0.13,40.92
13,-0.03,0.99,0.11,43.13
13,-0.02,0.99,0.11,44.45
13,-0.05,1.03,0.13,44.45
13,-0.03,0.99,0.12,43.33
13,-0.03,0.99,0.12,44.88
13,-0.03,0.99,0.12,44.88
13,-0.04,1.02,0.12,42.05
13,-0.04,1.04,0.13,43.79
13,-0.02,0.98,0.13,43.64
13,-0.04,1.01,0.13,49.12
13,-0.04,1.00,0.12,45.17
13,-0.03,1.00,0.12,41.48
13,-0.02,0.99,0.12,41.48
13,-0.04,1.02,0.13,38.17
13,-0.04,1.02,0.18,39.81
13,-0.02,0.98,0.12,39.81
13,-0.02,1.01,0.13,42.41
13,-0.02,1.01,0.13,38.58
13,-0.02,1.01,0.13,38.58
13,-0.01,0.97,0.12,42.07
13,-0.01,0.95,0.14,39.84
13,-0.04,1.02,0.14,41.90
13,-0.02,1.00,0.11,41.90
13,-0.02,0.99,0.13,43.73
13,-0.02,0.99,0.14,49.61
13,-0.04,1.02,0.14,49.61
13,-0.02,0.97,0.12,44.80
13,-0.02,0.97,0.12,42.56
13,-0.04,1.02,0.12,42.56
13,-0.03,1.01,0.12,41.67
13,-0.03,1.05,0.13,44.98
13,-0.02,0.99,0.13,45.03
13,-0.05,1.02,0.13,41.11
13,-0.05,0.98,0.13,42.98
13,-0.02,0.98,0.13,45.60
13,-0.03,1.00,0.14,45.60
13,-0.03,1.02,0.12,44.88
13,-0.03,1.02,0.12,41.49
13,-0.01,0.98,0.12,41.49
13,-0.04,1.02,0.13,40.93
13,-0.04,1.02,0.13,43.14
13,-0.02,0.99,0.13,43.73
13,-0.02,0.99,0.11,44.51
13,-0.02,0.96,0.13,42.57
13,-0.03,1.02,0.13,46.72
13,-0.02,0.97,0.13,46.72
13,-0.04,1.00,0.14,44.60
13,-0.04,1.00,0.18,43.69
13,-0.03,1.01,0.12,43.69
13,-0.02,0.98,0.12,45.19
13,-0.02,0.98,0.13,41.46
13,-0.04,1.02,0.13,41.46
13,-0.02,0.99,0.11,45.55
13,-0.02,0.94,0.13,42.81
13,-0.03,1.00,0.13,42.48
13,-0.04,1.02,0.13,44.04
13,-0.04,0.98,0.12,43.60
13,-0.02,0.98,0.12,40.97
13,-0.04,1.02,0.13,40.97
13,-0.03,0.99,0.12,43.25
13,-0.03,0.99,0.12,45.51
13,-0.02,0.98,0.12,45.51
13,-0.03,1.03,0.13,51.29
13,-0.03,1.04,0.12,46.25
13,-0.02,0.98,0.12,46.35
13,-0.04,1.01,0.14,41.65
13,-0.04,1.01,0.13,46.05
13,-0.04,1.01,0.13,43.15
13,-0.02,0.98,0.12,43.15
13,-0.04,1.02,0.12,46.19
13,-0.04,1.02,0.12,42.26
13,-0.02,0.98,0.12,42.26
13,-0.02,0.99,0.12,45.33
13,-0.02,0.99,0.13,45.96
13,-0.04,1.03,0.13,45.80
13,-0.02,0.98,0.12,44.23
13,-0.02,0.95,0.14,42.14
13,-0.05,1.01,0.14,45.97
13,-0.02,1.00,0.12,45.97
13,-0.02,0.98,0.13,47.61
13,-0.02,0.98,0.13,44.90
13,-0.04,1.03,0.13,44.90
13,-0.01,0.98,0.11,46.25
13,-0.01,0.98,0.13,41.55
13,-0.03,1.00,0.13,41.55
13,-0.02,1.02,0.12,40.98
13,-0.02,1.04,0.13,41.41
13,-0.01,0.98,0.13,40.99
13,-0.04,1.02,0.13,48.04
13,-0.04,1.00,0.12,46.66
13,-0.02,1.00,0.12,43.58
13,-0.03,1.00,0.12,43.58
13,-0.04,1.02,0.12,44.01
14,-0.02,0.99,0.12,43.85
14,-0.03,1.00,0.13,44.43
14,-0.03,1.00,0.13,47.77
14,-0.04,1.01,0.13,47.77
14,-0.01,0.98,0.12,37.48
14,-0.01,0.95,0.13,37.55
14,-0.04,1.01,0.13,38.01
14,-0.03,1.00,0.12,39.58
14,-0.03,0.99,0.12,43.87
14,-0.02,0.99,0.12,37.32
14,-0.03,1.02,0.12,37.32
14,-0.02,0.98,0.12,42.59
14,-0.02,0.98,0.13,42.45
14,-0.03,1.01,0.13,42.45
14,-0.02,1.01,0.12,41.30
14,-0.02,1.05,0.14,45.37
14,-0.02,0.98,0.14,45.53
14,-0.05,1.03,0.14,45.53
14,-0.05,0.99,0.12,41.40
14,-0.01,0.99,0.12,42.31
14,-0.03,1.00,0.13,42.31
14,-0.03,1.03,0.13,45.94
14,-0.03,1.03,0.18,43.90
14,-0.01,0.98,0.12,43.90
14,-0.04,1.01,0.13,43.51
14,-0.04,1.01,0.12,43.41
14,-0.02,1.00,0.12,43.22
14,-0.02,0.98,0.13,39.30
14,-0.02,0.96,0.12,41.54
14,-0.05,1.02,0.12,44.83
14,-0.02,0.99,0.11,44.83
14,-0.02,1.00,0.13,41.38
14,-0.04,1.00,0.18,44.25
14,-0.02,1.01,0.12,44.25
14,-0.03,0.97,0.13,44.93
14,-0.03,0.97,0.15,43.62
14,-0.05,1.01,0.15,43.62
14,-0.02,0.98,0.13,43.65
14,-0.02,0.99,0.14,45.40
14,-0.03,0.99,0.14,45.98
14,-0.04,1.02,0.13,39.72
14,-0.04,0.98,0.13,47.18
14,-0.02,0.98,0.13,45.12
14,-0.04,1.01,0.13,45.12
14,-0.02,1.01,0.12,49.06
14,-0.02,1.01,0.12,41.68
14,-0.01,0.99,0.12,41.68
14,-0.05,1.02,0.13,40.70
14,-0.05,1.05,0.12,43.10
14,-0.01,0.98,0.12,43.41
14,-0.03,1.00,0.13,44.98
14,-0.03,1.02,0.12,48.66
14,-0.03,1.02,0.12,45.64
14,-0.01,0.98,0.11,45.64
14,-0.04,1.03,0.13,42.62
14,-0.04,1.03,0.17,40.70
14,-0.02,1.01,0.11,40.70
14,-0.02,1.00,0.13,40.86
14,-0.02,1.00,0.13,42.62
14,-0.04,1.02,0.13,42.62
14,-0.02,0.98,0.12,40.57
14,-0.02,0.95,0.14,46.32
14,-0.05,1.01,0.14,43.60
14,-0.03,1.01,0.12,43.60
14,-0.03,0.98,0.11,45.35
14,-0.02,0.98,0.07,46.76
14,-0.04,1.03,0.13,46.76
14,-0.02,0.99,0.11,37.14
14,-0.02,0.99,0.13,45.04
14,-0.03,1.00,0.13,45.04
14,-0.04,1.01,0.13,42.54
14,-0.04,1.05,0.11,45.81
14,-0.03,0.98,0.11,45.42
14,-0.05,1.01,0.14,45.42
14,-0.05,0.99,0.11,46.97
14,-0.02,0.99,0.11,40.74
14,-0.03,0.98,0.13,40.74
14,-0.04,1.01,0.13,41.74
14,-0.04,1.01,0.13,45.38
14,-0.02,0.99,0.13,45.38
14,-0.03,1.01,0.12,44.01
14,-0.03,1.01,0.12,37.87
14,-0.03,1.01,0.12,37.78
14,-0.02,0.98,0.12,40.92
14,-0.02,0.96,0.14,38.09
14,-0.05,1.02,0.14,45.77
14,-0.02,0.98,0.12,45.77
14,-0.02,0.99,0.13,37.83
14,-0.03,0.99,0.13,40.55
14,-0.04,1.02,0.13,40.55
14,-0.01,0.98,0.12,39.87
14,-0.01,0.98,0.14,43.84
14,-0.03,1.01,0.14,43.84
14,-0.02,1.01,0.11,44.82
14,-0.02,1.05,0.12,40.99
14,-0.03,0.99,0.12,41.15
14,-0.05,1.02,0.13,38.02
14,-0.05,0.97,0.13,49.02
14,-0.02,0.97,0.13,39.23
14,-0.04,1.00,0.13,39.23
14,-0.03,1.01,0.13,41.09
14,-0.03,1.01,0.18,42.54
14,-0.02,0.99,0.12,42.54
14,-0.04,1.02,0.13,38.77
14,-0.04,1.02,0.11,42.42
14,-0.03,1.00,0.11,42.89
14,-0.03,0.99,0.12,45.24
14,-0.03,1.02,0.13,42.36
14,-0.05,1.02,0.13,42.23
14,-0.03,0.98,0.12,42.23
14,-0.04,1.01,0.15,42.80
14,-0.04,1.01,0.18,43.62
14,-0.03,1.00,0.12,43.62
14,-0.03,0.99,0.13,43.42
14,-0.03,0.99,0.14,39.93
14,-0.04,1.03,0.14,39.93
14,-0.02,0.99,0.11,42.78
14,-0.02,0.94,0.13,43.69
14,-0.03,1.00,0.13,43.32
14,-0.03,1.02,0.13,42.54
14,-0.03,0.99,0.11,42.65
14,-0.02,0.99,0.07,44.61
14,-0.04,1.02,0.13,44.61
14,-0.02,0.99,0.11,42.40
14,-0.02,0.99,0.12,46.81
14,-0.03,0.99,0.12,46.81
14,-0.05,1.02,0.13,46.29
14,-0.05,1.04,0.12,50.78
14,-0.02,0.98,0.12,50.83
14,-0.03,1.00,0.14,43.78
14,-0.03,1.01,0.10,42.14
14,-0.03,1.01,0.10,42.42
14,-0.03,0.98,0.12,42.42
14,-0.04,1.02,0.13,49.36
14,-0.04,1.02,0.18,44.31
14,-0.02,0.98,0.12,44.31
14,-0.03,0.99,0.14,43.31
14,-0.03,0.99,0.11,42.63
14,-0.04,1.02,0.11,42.62
14,-0.02,0.98,0.12,43.40
14,-0.02,0.96,0.13,41.61
14,-0.04,1.02,0.13,41.28
14,-0.02,1.00,0.12,41.28
14,-0.02,0.99,0.12,43.89
14,-0.02,0.99,0.08,44.46
14,-0.04,1.03,0.14,44.46
14,-0.02,0.98,0.13,43.65
14,-0.02,0.98,0.14,43.44
14,-0.03,1.00,0.14,43.44
14,-0.02,1.01,0.11,49.15
14,-0.02,1.05,0.13,46.69
14,-0.02,0.99,0.13,46.49
14,-0.04,1.01,0.12,44.14
14,-0.04,0.99,0.12,41.77
14,-0.01,0.99,0.12,47.18
14,-0.03,0.99,0.13,47.18
14,-0.04,1.02,0.13,40.54
14,-0.04,1.02,0.18,42.74
14,-0.02,0.97,0.12,42.74
14,-0.04,1.01,0.14,46.90
14,-0.04,1.01,0.12,44.90
14,-0.03,1.01,0.12,45.25
14,-0.02,0.98,0.13,49.95
14,-0.02,1.02,0.14,43.20
14,-0.03,1.02,0.14,43.47
14,-0.02,0.97,0.12,43.47
14,-0.03,1.00,0.12,43.29
14,-0.03,1.00,0.07,46.33
14,-0.03,1.02,0.13,46.33
14,-0.02,0.98,0.13,39.59
14,-0.02,0.98,0.14,46.44
14,-0.04,1.02,0.14,46.44
14,-0.02,0.99,0.12,40.49
14,-0.02,0.94,0.12,38.93
14,-0.02,1.00,0.12,38.35
14,-0.04,1.03,0.13,40.70
14,-0.04,0.98,0.12,41.76
14,-0.01,0.98,0.12,40.63
14,-0.04,1.01,0.13,40.63
14,-0.02,1.00,0.11,46.11
14,-0.02,1.00,0.12,47.63
14,-0.03,0.98,0.12,47.63
14,-0.03,1.02,0.13,45.09
14,-0.03,1.05,0.13,44.29
14,-0.03,0.99,0.13,44.02
14,-0.02,1.00,0.12,52.64
14,-0.02,1.02,0.12,41.79
14,-0.03,1.02,0.12,43.44
14,-0.02,0.97,0.12,43.44
14,-0.04,1.02,0.15,49.28
14,-0.04,1.02,0.13,45.10
14,-0.02,0.99,0.13,45.10
14,-0.03,0.99,0.14,42.97
14,-0.03,0.99,0.13,40.91
14,-0.04,1.02,0.13,41.40
14,-0.02,0.98,0.12,46.10
14,-0.02,0.94,0.13,43.32
14,-0.03,1.00,0.13,42.43
14,-0.02,1.01,0.13,42.43
14,-0.02,0.98,0.13,44.14
14,-0.02,0.98,0.13,45.66
14,-0.05,1.02,0.13,45.66
14,-0.02,0.99,0.12,40.33
14,-0.02,0.99,0.13,50.07
14,-0.03,0.99,0.13,50.07
14,-0.02,1.02,0.12,45.96
14,-0.02,1.03,0.12,44.03
14,-0.02,0.97,0.12,44.39
14,-0.04,1.01,0.12,45.95
14,-0.04,1.02,0.12,40.32
14,-0.02,1.02,0.12,39.38
14,-0.02,0.98,0.13,39.38
14,-0.04,1.02,0.13,45.99
14,-0.04,1.02,0.13,45.22
14,-0.02,0.98,0.13,45.22
14,-0.04,1.00,0.14,44.34
14,-0.04,1.00,0.13,44.99
14,-0.04,1.02,0.13,44.91
14,-0.01,0.98,0.13,41.77
14,-0.01,1.01,0.14,42.36
14,-0.03,1.01,0.14,38.21
14,-0.02,0.98,0.12,38.21
14,-0.02,0.99,0.13,42.33
14,-0.02,0.99,0.13,41.30
14,-0.03,1.02,0.13,41.30
14,-0.02,0.98,0.12,45.89
14,-0.02,0.98,0.13,42.55
14,-0.04,1.01,0.13,42.55
14,-0.03,1.01,0.12,45.83
14,-0.03,1.04,0.12,41.97
14,-0.02,0.98,0.12,41.99
14,-0.04,1.02,0.13,45.91
14,-0.04,0.99,0.11,43.66
15,-0.02,0.99,0.12,46.38
15,-0.03,1.01,0.13,43.34
15,-0.03,1.01,0.18,49.53
15,-0.02,0.98,0.12,49.53
15,-0.04,1.01,0.14,40.38
15,-0.04,1.01,0.12,42.30
15,-0.02,1.00,0.12,42.30
15,-0.02,0.99,0.13,46.23
15,-0.02,0.96,0.13,45.88
15,-0.05,1.02,0.13,45.48
15,-0.02,1.00,0.12,47.05
15,-0.02,1.00,0.13,42.09
15,-0.03,1.00,0.18,41.69
15,-0.03,1.02,0.12,41.69
15,-0.01,0.98,0.12,42.90
15,-0.01,0.98,0.14,48.91
15,-0.04,1.01,0.14,48.91
15,-0.02,1.00,0.12,40.14
15,-0.02,1.05,0.12,47.62
15,-0.03,0.98,0.12,47.28
15,-0.04,1.02,0.13,41.01
15,-0.04,0.99,0.13,44.76
15,-0.02,0.99,0.13,50.46
15,-0.04,1.00,0.13,50.46
15,-0.02,1.02,0.11,39.68
15,-0.02,1.02,0.12,40.99
15,-0.02,0.98,0.12,40.99
15,-0.05,1.02,0.14,44.14
15,-0.05,1.02,0.12,43.38
15,-0.02,0.99,0.12,43.74
15,-0.03,1.00,0.13,45.31
15,-0.03,1.02,0.13,40.58
15,-0.03,1.02,0.13,38.42
15,-0.01,0.99,0.12,38.42
15,-0.01,1.01,0.13,42.93
15,-0.04,1.01,0.17,42.75
15,-0.02,1.01,0.11,42.75
15,-0.02,0.98,0.12,43.53
15,-0.02,0.98,0.14,42.57
15,-0.04,1.02,0.14,42.57
15,-0.02,0.98,0.13,39.33
15,-0.02,0.99,0.15,47.79
15,-0.04,0.99,0.15,48.18
15,-0.03,1.01,0.13,44.27
15,-0.03,0.98,0.12,42.64
15,-0.03,0.98,0.12,48.23
15,-0.04,1.02,0.13,48.23
15,-0.02,0.99,0.12,38.35
15,-0.02,0.99,0.06,43.83
15,-0.03,0.98,0.13,43.83
15,-0.04,1.02,0.13,38.95
15,-0.04,1.02,0.11,41.39
15,-0.02,0.97,0.11,40.70
15,-0.04,1.00,0.13,48.53
15,-0.04,1.01,0.12,46.51
15,-0.02,1.01,0.12,41.66
15,-0.01,0.98,0.13,41.66
15,-0.04,1.01,0.13,41.04
15,-0.04,1.01,0.18,48.17
15,-0.02,0.99,0.11,48.17
15,-0.02,1.00,0.12,42.30
15,-0.02,1.00,0.12,45.15
15,-0.03,1.01,0.12,45.15
15,-0.02,0.98,0.12,42.23
15,-0.02,0.96,0.13,43.28
15,-0.04,1.02,0.13,43.74
15,-0.02,0.99,0.12,50.79
15,-0.02,0.99,0.13,42.25
15,-0.03,0.99,0.13,45.01
15,-0.04,1.01,0.13,45.01
15,-0.01,0.99,0.11,45.13
15,-0.01,0.99,0.13,44.49
15,-0.04,1.00,0.13,44.49
15,-0.03,1.01,0.11,47.23
15,-0.03,1.03,0.13,44.29
15,-0.01,0.97,0.13,44.33
15,-0.04,1.03,0.13,44.33
15,-0.04,0.99,0.12,44.73
15,-0.02,0.99,0.12,46.22
15,-0.04,0.99,0.13,46.22
15,-0.03,1.02,0.13,43.97
15,-0.03,1.02,0.17,49.97
15,-0.02,0.98,0.11,49.97
15,-0.04,1.01,0.12,46.23
15,-0.04,1.01,0.12,46.51
15,-0.03,0.99,0.12,46.21
15,-0.02,0.98,0.12,41.51
15,-0.02,0.96,0.13,40.22
15,-0.04,1.02,0.13,45.18
15,-0.02,0.98,0.11,45.18
15,-0.02,1.02,0.13,45.72
15,-0.04,1.02,0.18,43.15
15,-0.04,1.01,0.11,43.15
15,-0.02,0.99,0.12,43.87
15,-0.02,0.99,0.15,40.03
15,-0.04,1.01,0.15,40.03
15,-0.02,1.00,0.12,46.77
15,-0.02,0.94,0.13,42.08
15,-0.02,1.00,0.13,41.56
15,-0.04,1.02,0.12,41.56
15,-0.04,0.98,0.11,37.71
15,-0.01,0.98,0.11,43.46
15,-0.04,1.00,0.14,43.46
15,-0.03,1.00,0.12,42.71
15,-0.03,1.00,0.06,42.04
15,-0.02,0.98,0.13,42.04
15,-0.05,1.02,0.14,44.24
15,-0.05,1.02,0.13,39.35
15,-0.02,0.99,0.13,39.86
15,-0.04,0.99,0.12,44.56
15,-0.04,1.02,0.13,46.64
15,-0.03,1.02,0.13,45.75
15,-0.02,0.97,0.12,45.75
15,-0.04,1.02,0.13,40.23
15,-0.04,1.02,0.18,43.50
15,-0.02,1.00,0.12,43.50
15,-0.03,0.99,0.13,40.05
15,-0.03,0.99,0.13,42.14
15,-0.05,1.02,0.13,42.14
15,-0.01,0.97,0.12,42.48
15,-0.01,0.95,0.13,39.32
15,-0.03,1.01,0.13,39.19
15,-0.03,1.00,0.11,42.33
15,-0.03,0.99,0.13,50.16
15,-0.02,0.99,0.13,44.56
15,-0.05,1.02,0.13,44.56
15,-0.01,1.00,0.11,44.86
15,-0.01,1.00,0.13,43.01
15,-0.03,1.00,0.13,43.01
15,-0.03,1.03,0.12,45.88
15,-0.03,1.04,0.12,40.76
15,-0.02,0.98,0.12,41.07
15,-0.04,1.00,0.13,43.42
15,-0.04,0.99,0.12,44.38
15,-0.03,0.99,0.12,45.72
15,-0.02,0.99,0.12,45.72
15,-0.04,1.02,0.12,44.69
15,-0.04,1.02,0.12,41.81
15,-0.02,0.99,0.12,41.81
15,-0.04,1.01,0.13,43.16
15,-0.04,1.01,0.12,42.41
15,-0.03,1.01,0.12,42.48
15,-0.02,0.99,0.12,40.91
15,-0.02,0.96,0.13,41.26
15,-0.04,1.02,0.13,43.68
15,-0.03,1.00,0.12,43.68
15,-0.03,1.00,0.12,41.48
15,-0.02,1.00,0.07,38.49
15,-0.04,1.01,0.13,38.49
15,-0.02,0.98,0.13,47.39
15,-0.02,0.98,0.14,47.85
15,-0.04,1.02,0.14,47.85
15,-0.04,0.99,0.12,44.05
15,-0.04,0.98,0.14,48.64
15,-0.02,0.98,0.14,48.68
15,-0.04,1.02,0.13,41.63
15,-0.04,0.98,0.11,44.91
15,-0.02,0.98,0.11,46.51
15,-0.03,1.00,0.13,46.51
15,-0.03,1.01,0.12,45.94
15,-0.03,1.01,0.11,40.98
15,-0.02,0.98,0.11,40.98
15,-0.04,1.02,0.13,47.64
15,-0.04,1.02,0.11,44.63
15,-0.02,0.99,0.11,44.65
15,-0.03,0.99,0.14,43.08
15,-0.03,0.96,0.13,42.92
15,-0.04,1.02,0.13,42.31
15,-0.01,0.98,0.12,42.31
15,-0.04,1.01,0.12,44.99
15,-0.04,1.01,0.12,42.63
15,-0.03,1.00,0.12,42.63
15,-0.02,0.98,0.12,44.77
15,-0.02,0.98,0.13,44.37
15,-0.04,1.03,0.13,44.37
15,-0.01,0.99,0.11,47.46
15,-0.01,1.00,0.12,41.11
15,-0.03,1.00,0.12,40.97
15,-0.03,1.01,0.12,44.88
15,-0.03,0.98,0.12,47.10
15,-0.02,0.98,0.07,45.54
15,-0.04,1.01,0.13,45.54
15,-0.03,1.00,0.11,43.03
15,-0.03,1.00,0.13,44.78
15,-0.01,0.99,0.13,44.78
15,-0.04,1.02,0.13,41.91
15,-0.04,1.05,0.11,45.61
15,-0.01,0.98,0.11,45.73
15,-0.03,1.01,0.13,42.59
15,-0.03,1.01,0.13,46.96
15,-0.03,1.01,0.13,47.23
15,-0.02,0.99,0.13,47.23
15,-0.04,1.01,0.13,47.26
15,-0.04,1.01,0.13,45.07
15,-0.02,0.98,0.13,45.07
15,-0.02,1.00,0.12,44.30
15,-0.02,1.00,0.13,44.23
15,-0.04,1.01,0.13,44.17
15,-0.01,0.98,0.12,41.82
15,-0.01,0.95,0.14,50.69
15,-0.04,1.01,0.14,46.54
15,-0.02,1.00,0.12,46.54
15,-0.02,0.98,0.13,47.69
15,-0.03,0.98,0.13,42.54
15,-0.04,1.01,0.13,42.54
15,-0.02,0.99,0.12,42.48
15,-0.02,0.99,0.13,44.85
15,-0.04,1.01,0.13,44.85
15,-0.03,1.01,0.11,40.35
15,-0.03,1.05,0.12,41.86
15,-0.01,0.98,0.12,41.64
15,-0.05,1.02,0.14,50.26
15,-0.05,0.99,0.12,45.10
15,-0.02,0.99,0.12,45.95
15,-0.03,1.00,0.12,45.95
15,-0.03,1.01,0.13,43.74
15,-0.03,1.01,0.18,42.19
15,-0.02,0.98,0.12,42.19
15,-0.04,1.01,0.13,38.79
15,-0.04,1.00,0.13,45.10
15,-0.03,1.00,0.13,45.24
15,-0.01,0.98,0.12,44.45
15,-0.01,1.02,0.13,45.69
15,-0.04,1.02,0.13,43.22
15,-0.02,0.98,0.12,43.22
15,-0.04,1.00,0.13,45.34
15,-0.04,1.00,0.18,43.27
15,-0.03,1.02,0.12,43.27
15,-0.01,0.98,0.13,42.67
15,-0.01,0.98,0.14,44.96
15,-0.04,1.02,0.14,45.30
15,-0.03,0.98,0.12,42.95
15,-0.03,0.99,0.12,43.35
16,-0.04,1.02,0.14,44.52
16,-0.04,0.99,0.11,44.98
16,-0.02,0.99,0.11,49.25
16,-0.03,0.99,0.12,49.25
16,-0.03,1.02,0.11,45.43
16,-0.03,1.02,0.13,47.56
16,-0.02,0.98,0.13,47.56
16,-0.04,1.02,0.14,47.47
16,-0.04,1.00,0.13,39.65
16,-0.02,1.00,0.13,39.88
16,-0.02,0.99,0.12,39.88
16,-0.02,1.02,0.14,39.84
16,-0.04,1.02,0.14,39.54
16,-0.02,0.97,0.13,39.54
16,-0.04,1.01,0.14,46.15
16,-0.04,1.01,0.17,42.70
16,-0.03,1.02,0.11,42.70
16,-0.02,0.98,0.12,43.39
16,-0.02,0.98,0.13,47.61
16,-0.04,1.02,0.13,47.61
16,-0.03,0.99,0.12,45.78
16,-0.03,1.00,0.13,48.82
16,-0.02,1.00,0.13,44.37
16,-0.04,1.02,0.13,44.37
16,-0.04,0.98,0.12,44.71
16,-0.03,0.98,0.07,41.10
16,-0.04,1.01,0.13,41.10
16,-0.03,1.00,0.13,45.54
16,-0.03,1.00,0.12,40.63
16,-0.03,0.99,0.12,40.63
16,-0.04,1.02,0.13,40.83
16,-0.04,1.05,0.11,39.83
16,-0.03,0.98,0.11,39.23
16,-0.04,0.99,0.13,39.23
16,-0.04,1.00,0.12,40.90
16,-0.03,1.00,0.12,45.31
16,-0.03,0.98,0.13,45.31
16,-0.05,1.02,0.14,41.52
16,-0.05,1.02,0.18,47.65
16,-0.02,0.99,0.12,47.65
16,-0.03,0.99,0.14,43.90
16,-0.03,0.99,0.12,47.47
16,-0.04,1.02,0.12,47.06
16,-0.02,0.98,0.12,47.06
16,-0.02,0.96,0.13,41.68
16,-0.03,1.02,0.13,38.40
16,-0.03,1.00,0.12,38.40
16,-0.03,0.98,0.12,41.91
16,-0.02,0.98,0.06,41.26
16,-0.05,1.02,0.13,41.26
16,-0.01,0.98,0.13,43.26
16,-0.01,0.98,0.13,40.65
16,-0.03,1.01,0.13,40.65
16,-0.03,1.02,0.12,40.60
16,-0.03,1.04,0.13,43.08
16,-0.02,0.98,0.13,43.64
16,-0.04,1.02,0.13,42.07
16,-0.04,1.00,0.13,45.33
16,-0.02,1.00,0.13,40.60
16,-0.02,0.99,0.12,40.60
16,-0.04,1.02,0.13,40.15
16,-0.04,1.02,0.17,46.16
16,-0.03,0.98,0.11,46.16
16,-0.04,1.02,0.12,42.91
16,-0.04,1.02,0.12,38.81
16,-0.02,1.01,0.12,38.39
16,-0.03,0.99,0.12,40.74
16,-0.03,1.01,0.13,43.40
16,-0.04,1.01,0.13,44.34
16,-0.02,0.99,0.12,44.34
16,-0.04,1.00,0.12,42.73
16,-0.04,1.00,0.07,41.92
16,-0.04,1.02,0.13,41.92
16,-0.02,0.98,0.14,42.27
16,-0.02,0.98,0.14,40.27
16,-0.04,1.01,0.14,40.27
16,-0.03,0.99,0.13,44.12
16,-0.03,1.00,0.12,45.73
16,-0.03,1.00,0.12,43.59
16,-0.04,1.03,0.13,43.59
16,-0.04,0.98,0.12,46.55
16,-0.02,0.98,0.07,43.74
16,-0.03,1.01,0.13,43.74
16,-0.04,1.01,0.13,41.02
16,-0.04,1.01,0.12,42.12
16,-0.02,0.99,0.12,42.12
16,-0.04,1.01,0.13,42.81
16,-0.04,1.05,0.12,43.42
16,-0.02,0.99,0.12,43.25
16,-0.02,0.99,0.12,43.25
16,-0.02,1.01,0.13,43.67
16,-0.04,1.01,0.13,43.29
16,-0.02,0.99,0.12,43.29
16,-0.04,1.01,0.14,43.10
16,-0.04,1.01,0.18,42.38
16,-0.02,1.01,0.12,42.38
16,-0.02,0.99,0.14,47.85
16,-0.02,0.99,0.13,46.17
16,-0.04,1.01,0.13,46.32
16,-0.02,0.99,0.12,44.75
16,-0.02,1.00,0.14,43.38
16,-0.02,1.00,0.14,43.09
16,-0.03,1.00,0.13,43.09
16,-0.03,0.98,0.12,46.05
16,-0.03,0.98,0.07,46.49
16,-0.04,1.01,0.13,46.49
16,-0.02,0.99,0.12,42.10
16,-0.02,0.99,0.13,44.78
16,-0.02,0.99,0.13,44.78
16,-0.04,1.02,0.12,42.73
16,-0.04,1.05,0.13,44.62
16,-0.02,0.99,0.13,45.25
16,-0.04,1.01,0.12,42.90
16,-0.04,1.00,0.12,42.36
16,-0.03,1.00,0.12,45.87
16,-0.03,0.98,0.12,45.87
16,-0.04,1.01,0.12,41.62
16,-0.04,1.01,0.12,44.48
16,-0.03,0.99,0.12,44.48
16,-0.03,1.00,0.13,43.82
16,-0.03,1.01,0.13,43.23
16,-0.03,1.01,0.13,43.67
16,-0.02,0.99,0.13,42.89
16,-0.02,1.01,0.14,45.13
16,-0.04,1.01,0.14,41.61
16,-0.03,1.00,0.12,41.61
16,-0.03,0.99,0.12,43.39
16,-0.03,0.99,0.07,40.69
16,-0.04,1.02,0.13,40.69
16,-0.02,0.98,0.12,40.54
16,-0.02,0.98,0.14,39.02
16,-0.03,1.01,0.14,39.02
16,-0.03,1.01,0.12,36.87
16,-0.03,1.04,0.12,39.12
16,-0.02,0.98,0.12,39.83
16,-0.04,1.03,0.12,39.83
16,-0.04,1.00,0.11,40.06
16,-0.02,1.00,0.12,41.96
16,-0.03,1.00,0.12,41.96
16,-0.03,1.02,0.13,42.86
16,-0.03,1.02,0.13,40.25
16,-0.02,0.98,0.13,40.25
16,-0.04,1.01,0.14,41.88
16,-0.04,1.00,0.12,40.17
16,-0.02,1.00,0.12,40.17
16,-0.03,0.98,0.13,43.31
16,-0.03,1.02,0.13,38.55
16,-0.05,1.02,0.13,44.08
16,-0.02,0.98,0.11,44.08
16,-0.05,1.01,0.13,45.58
16,-0.05,1.01,0.19,42.18
16,-0.02,1.01,0.12,42.18
16,-0.03,0.99,0.12,43.70
16,-0.03,0.99,0.14,40.41
16,-0.04,1.02,0.14,39.93
16,-0.02,0.99,0.11,39.93
16,-0.02,0.99,0.12,44.77
16,-0.03,0.99,0.12,45.80
16,-0.04,1.02,0.13,45.80
16,-0.04,0.98,0.13,38.82
16,-0.02,0.98,0.13,43.68
16,-0.04,1.01,0.13,43.68
16,-0.03,1.00,0.11,45.84
16,-0.03,1.00,0.13,44.30
16,-0.02,0.99,0.13,44.30
16,-0.04,1.02,0.13,40.81
16,-0.04,1.05,0.13,42.30
16,-0.02,0.99,0.13,42.79
16,-0.03,1.00,0.14,39.65
16,-0.03,1.01,0.13,45.91
16,-0.03,1.01,0.13,43.94
16,-0.02,0.97,0.11,43.94
16,-0.03,1.02,0.14,41.96
16,-0.03,1.02,0.18,42.97
16,-0.03,0.99,0.12,42.97
16,-0.02,0.99,0.12,48.41
16,-0.02,0.96,0.14,45.62
16,-0.04,1.02,0.14,45.60
16,-0.02,0.98,0.12,40.12
16,-0.02,1.01,0.13,44.72
16,-0.03,1.01,0.13,41.72
16,-0.03,1.01,0.12,41.72
16,-0.02,0.99,0.12,43.28
16,-0.02,0.99,0.06,45.62
16,-0.03,1.02,0.13,45.62
16,-0.02,0.98,0.12,42.64
16,-0.02,0.98,0.13,43.60
16,-0.04,1.00,0.13,43.60
16,-0.03,1.02,0.12,48.49
16,-0.03,1.05,0.13,46.28
16,-0.01,0.98,0.13,41.61
16,-0.05,1.02,0.12,41.61
16,-0.05,0.99,0.12,45.71
16,-0.02,0.99,0.12,41.27
16,-0.03,0.99,0.12,41.27
16,-0.04,1.02,0.12,42.92
16,-0.04,1.02,0.12,43.41
16,-0.02,0.99,0.12,43.41
16,-0.03,1.00,0.12,46.39
16,-0.03,1.01,0.12,45.44
16,-0.03,1.01,0.12,46.05
16,-0.02,0.99,0.12,42.13
16,-0.02,1.02,0.13,42.14
16,-0.05,1.02,0.13,44.42
16,-0.03,0.98,0.13,44.42
16,-0.03,0.99,0.13,44.66
16,-0.03,0.99,0.19,46.63
16,-0.03,1.01,0.12,46.63
16,-0.02,0.99,0.12,43.35
16,-0.02,0.99,0.13,47.00
16,-0.05,1.01,0.13,47.66
16,-0.02,1.00,0.11,40.61
16,-0.02,1.05,0.13,45.63
16,-0.02,0.99,0.13,42.22
16,-0.04,1.02,0.13,42.22
16,-0.04,0.99,0.11,39.72
16,-0.02,0.99,0.06,39.83
16,-0.03,1.00,0.13,39.83
16,-0.03,1.01,0.12,40.16
16,-0.03,1.01,0.13,41.59
16,-0.02,0.98,0.13,41.59
16,-0.04,1.01,0.13,42.65
16,-0.04,1.05,0.12,40.01
16,-0.02,0.99,0.12,39.91
16,-0.02,1.00,0.12,45.39
16,-0.02,1.02,0.13,47.66
16,-0.03,1.02,0.13,47.67
16,-0.02,0.99,0.11,47.67
16,-0.04,1.01,0.14,45.36
16,-0.04,1.01,0.14,44.38
16,-0.02,1.00,0.14,44.38
16,-0.02,0.99,0.12,42.66
16,-0.02,0.96,0.12,43.98
17,-0.03,0.99,0.12,40.56
17,-0.03,1.00,0.14,47.80
17,-0.03,1.00,0.14,39.83
17,-0.04,1.01,0.13,39.83
17,-0.04,0.98,0.13,47.52
17,-0.03,0.98,0.13,40.50
17,-0.04,1.01,0.13,40.50
17,-0.03,1.01,0.13,43.35
17,-0.03,1.01,0.12,44.77
17,-0.02,0.98,0.12,44.77
17,-0.03,1.02,0.13,45.02
17,-0.03,1.06,0.13,46.06
17,-0.03,0.99,0.13,45.87
17,-0.03,1.00,0.12,42.74
17,-0.03,1.02,0.12,46.44
17,-0.03,1.02,0.12,43.48
17,-0.03,0.98,0.12,43.48
17,-0.04,1.01,0.13,45.07
17,-0.04,1.01,0.18,42.11
17,-0.03,0.99,0.12,42.11
17,-0.01,0.99,0.12,45.36
17,-0.01,0.96,0.12,42.42
17,-0.04,1.02,0.12,42.84
17,-0.03,0.99,0.11,47.54
17,-0.03,1.01,0.14,44.65
17,-0.03,1.01,0.14,49.34
17,-0.02,1.01,0.13,49.34
17,-0.02,0.98,0.12,50.17
17,-0.02,0.98,0.07,40.48
17,-0.04,1.02,0.13,40.48
17,-0.02,1.00,0.13,44.34
17,-0.02,1.00,0.11,48.75
17,-0.02,1.00,0.11,48.70
17,-0.05,1.01,0.13,45.56
17,-0.05,1.05,0.12,43.22
17,-0.02,0.98,0.12,46.31
17,-0.03,1.01,0.13,46.31
17,-0.03,1.01,0.12,40.45
17,-0.03,1.01,0.07,43.78
17,-0.01,0.99,0.13,43.78
17,-0.05,1.02,0.13,37.46
17,-0.05,1.02,0.12,47.52
17,-0.02,0.99,0.12,47.52
17,-0.03,1.00,0.13,44.97
17,-0.03,1.01,0.13,40.82
17,-0.03,1.01,0.13,41.42
17,-0.02,0.98,0.12,42.99
17,-0.02,1.02,0.12,44.35
17,-0.04,1.02,0.12,43.79
17,-0.03,0.99,0.13,43.79
17,-0.02,0.98,0.13,41.18
17,-0.02,0.98,0.13,42.22
17,-0.04,1.02,0.13,42.22
17,-0.03,0.98,0.13,45.81
17,-0.03,0.98,0.13,43.33
17,-0.03,1.01,0.13,43.08
17,-0.02,1.00,0.12,42.30
17,-0.02,1.05,0.12,42.73
17,-0.02,0.99,0.12,43.84
17,-0.04,1.02,0.12,43.84
17,-0.04,0.98,0.12,41.65
17,-0.02,0.98,0.07,42.06
17,-0.04,0.99,0.14,42.06
17,-0.03,1.01,0.14,43.83
17,-0.03,1.01,0.12,39.85
17,-0.02,0.97,0.12,39.85
17,-0.04,1.01,0.12,43.09
17,-0.04,1.06,0.13,41.21
17,-0.03,1.00,0.13,41.06
17,-0.03,1.00,0.12,43.41
17,-0.03,1.02,0.12,40.53
17,-0.04,1.02,0.12,41.74
17,-0.02,0.99,0.12,41.74
17,-0.03,1.01,0.13,39.68
17,-0.03,1.01,0.13,42.47
17,-0.03,1.00,0.13,42.47
17,-0.02,0.98,0.12,48.71
17,-0.02,0.96,0.14,47.95
17,-0.04,1.03,0.14,48.20
17,-0.02,0.99,0.11,42.71
17,-0.02,1.00,0.13,42.85
17,-0.03,1.00,0.13,39.55
17,-0.03,1.02,0.12,39.55
17,-0.01,0.98,0.12,40.68
17,-0.01,0.98,0.07,40.89
17,-0.03,1.01,0.13,40.89
17,-0.02,1.00,0.12,42.60
17,-0.02,1.00,0.14,43.21
17,-0.03,0.98,0.14,43.64
17,-0.03,1.02,0.13,44.43
17,-0.03,1.05,0.12,42.02
17,-0.02,0.99,0.12,47.11
17,-0.03,1.00,0.13,47.11
17,-0.03,1.01,0.12,44.44
17,-0.03,1.01,0.12,38.56
17,-0.02,0.99,0.12,38.56
17,-0.04,1.02,0.13,44.33
17,-0.04,1.02,0.13,45.69
17,-0.01,0.99,0.13,45.69
17,-0.03,1.00,0.13,41.58
17,-0.03,0.96,0.12,44.57
17,-0.03,1.02,0.12,43.98
17,-0.02,0.98,0.12,42.42
17,-0.02,1.00,0.15,41.72
17,-0.04,1.00,0.15,46.15
17,-0.02,1.00,0.12,46.15
17,-0.02,0.99,0.12,46.98
17,-0.02,0.99,0.12,46.40
17,-0.04,1.02,0.12,46.40
17,-0.02,0.99,0.12,44.02
17,-0.02,0.99,0.13,45.60
17,-0.03,1.01,0.13,45.65
17,-0.03,1.02,0.12,40.95
17,-0.03,1.04,0.12,43.97
17,-0.01,0.98,0.12,49.90
17,-0.04,1.02,0.13,49.90
17,-0.02,0.99,0.12,44.18
17,-0.02,0.99,0.07,45.54
17,-0.03,0.99,0.13,45.54
17,-0.03,1.01,0.12,44.79
17,-0.03,1.01,0.12,43.54
17,-0.02,0.98,0.12,43.54
17,-0.04,1.01,0.13,46.75
17,-0.04,1.00,0.12,42.13
17,-0.03,1.00,0.12,41.73
17,-0.02,0.99,0.12,45.65
17,-0.02,1.01,0.12,42.38
17,-0.04,1.01,0.12,45.01
17,-0.03,0.99,0.12,45.01
17,-0.03,0.99,0.12,38.97
17,-0.03,0.99,0.06,45.47
17,-0.03,1.01,0.13,45.47
17,-0.02,0.99,0.12,42.92
17,-0.02,0.95,0.12,42.71
17,-0.03,1.01,0.12,42.29
17,-0.01,0.99,0.12,38.37
17,-0.01,1.00,0.13,43.02
17,-0.02,1.00,0.13,47.55
17,-0.04,1.03,0.14,47.55
17,-0.02,0.98,0.13,41.18
17,-0.02,0.98,0.18,45.06
17,-0.04,1.00,0.12,45.06
17,-0.03,1.01,0.12,49.04
17,-0.03,1.01,0.13,44.50
17,-0.01,0.99,0.13,44.21
17,-0.04,1.02,0.13,42.64
17,-0.04,1.05,0.12,40.81
17,-0.02,0.99,0.12,42.89
17,-0.03,0.99,0.13,42.89
17,-0.03,1.02,0.12,44.44
17,-0.04,1.02,0.07,44.65
17,-0.02,0.99,0.13,44.65
17,-0.04,1.02,0.12,46.50
17,-0.04,1.02,0.13,45.52
17,-0.02,1.00,0.13,45.52
17,-0.02,0.98,0.13,43.29
17,-0.02,0.95,0.12,43.16
17,-0.04,1.01,0.12,43.70
17,-0.03,0.99,0.12,41.35
17,-0.03,1.00,0.13,42.44
17,-0.03,1.00,0.13,42.91
17,-0.03,1.01,0.13,42.91
17,-0.02,0.98,0.12,42.08
17,-0.02,0.98,0.07,43.41
17,-0.03,1.02,0.13,43.41
17,-0.03,1.00,0.12,43.97
17,-0.03,1.00,0.12,44.59
17,-0.03,0.99,0.12,45.25
17,-0.04,1.01,0.12,42.90
17,-0.04,1.05,0.13,43.99
17,-0.02,0.99,0.13,40.11
17,-0.03,1.01,0.14,40.11
17,-0.03,1.00,0.13,40.07
17,-0.03,1.00,0.18,47.81
17,-0.01,0.99,0.12,47.81
17,-0.03,1.02,0.13,37.98
17,-0.03,1.02,0.13,46.21
17,-0.01,0.99,0.13,46.21
17,-0.03,1.00,0.13,45.03
17,-0.03,0.96,0.13,43.13
17,-0.03,1.02,0.13,43.36
17,-0.02,0.97,0.12,44.92
17,-0.02,1.02,0.13,41.14
17,-0.04,1.02,0.18,45.15
17,-0.03,0.99,0.12,45.15
17,-0.03,0.99,0.12,44.55
17,-0.03,0.99,0.13,42.47
17,-0.02,1.02,0.13,42.47
17,-0.03,0.99,0.12,40.47
17,-0.03,0.94,0.14,41.29
17,-0.03,1.01,0.14,41.10
17,-0.02,1.00,0.12,45.02
17,-0.02,0.98,0.13,44.98
17,-0.02,0.98,0.13,44.59
17,-0.04,1.02,0.13,44.59
17,-0.02,1.00,0.13,47.21
17,-0.02,1.00,0.18,46.18
17,-0.03,0.99,0.11,46.18
17,-0.03,1.02,0.13,42.61
17,-0.03,1.02,0.11,46.97
17,-0.02,0.98,0.11,47.31
17,-0.05,1.02,0.12,48.88
17,-0.05,1.06,0.11,43.24
17,-0.03,1.00,0.11,41.63
17,-0.02,0.99,0.13,41.63
17,-0.03,1.02,0.12,50.53
17,-0.03,1.02,0.12,42.10
17,-0.02,0.98,0.12,42.10
17,-0.04,1.00,0.12,46.47
17,-0.04,1.00,0.12,44.51
17,-0.03,1.01,0.12,44.51
17,-0.02,0.99,0.12,46.64
17,-0.02,0.95,0.14,45.35
17,-0.04,1.01,0.14,44.69
17,-0.02,0.99,0.12,45.48
17,-0.02,1.00,0.13,46.77
17,-0.03,1.00,0.13,46.76
17,-0.04,1.02,0.12,46.76
17,-0.02,0.99,0.12,42.66
17,-0.02,0.99,0.13,43.02
17,-0.04,1.01,0.13,43.02
17,-0.03,1.00,0.13,41.79
17,-0.03,1.06,0.12,40.43
17,-0.03,0.99,0.12,39.93
17,-0.04,1.02,0.12,38.36
17,-0.04,0.99,0.12,41.00
17,-0.02,0.99,0.12,41.76
17,-0.04,1.00,0.14,41.76
17,-0.03,1.00,0.13,44.22
17,-0.03,1.00,0.13,42.02
17,-0.02,0.98,0.13,42.02
17,-0.04,1.02,0.14,39.12
17,-0.04,1.02,0.11,43.45
18,-0.02,0.99,0.14,46.82
18,-0.02,0.96,0.13,39.32
18,-0.04,1.03,0.13,39.47
18,-0.02,0.98,0.11,43.39
18,-0.02,1.00,0.13,46.05
18,-0.03,1.00,0.13,40.07
18,-0.03,1.02,0.12,40.07
18,-0.01,0.99,0.13,42.44
18,-0.01,0.99,0.13,45.31
18,-0.04,1.02,0.13,45.31
18,-0.03,1.00,0.12,44.76
18,-0.03,1.00,0.13,44.18
18,-0.02,0.99,0.13,44.27
18,-0.04,1.02,0.13,45.83
18,-0.04,1.05,0.11,45.42
18,-0.02,0.99,0.11,42.47
18,-0.04,1.01,0.13,42.47
18,-0.04,1.02,0.13,41.05
18,-0.03,1.02,0.13,45.46
18,-0.03,0.98,0.13,45.46
18,-0.04,1.02,0.13,44.03
18,-0.04,1.02,0.12,41.73
18,-0.03,0.99,0.12,41.73
18,-0.03,0.99,0.13,41.68
18,-0.03,0.95,0.13,45.40
18,-0.03,1.01,0.13,45.47
18,-0.02,0.98,0.12,43.12
18,-0.02,1.01,0.13,45.31
18,-0.05,1.01,0.18,45.43
18,-0.02,1.00,0.12,45.43
18,-0.03,0.99,0.13,43.50
18,-0.03,0.99,0.13,38.77
18,-0.04,1.02,0.13,38.77
18,-0.02,0.99,0.12,47.65
18,-0.02,0.94,0.12,38.57
18,-0.03,1.00,0.12,38.37
18,-0.03,1.01,0.11,45.42
18,-0.03,0.99,0.12,45.92
18,-0.02,0.99,0.12,44.75
18,-0.03,1.01,0.13,44.75
18,-0.03,0.99,0.12,39.96
18,-0.03,0.99,0.07,44.76
18,-0.03,1.00,0.13,44.76
18,-0.03,1.02,0.13,39.87
18,-0.03,1.02,0.11,42.71
18,-0.02,0.98,0.11,42.84
18,-0.04,1.00,0.13,43.62
18,-0.04,0.94,0.12,38.08
18,-0.02,1.01,0.12,39.07
18,-0.03,0.98,0.13,39.07
18,-0.03,1.01,0.12,46.55
18,-0.04,1.01,0.07,45.58
18,-0.03,0.98,0.13,45.58
18,-0.03,1.01,0.12,43.34
18,-0.03,1.01,0.12,41.07
18,-0.03,1.01,0.12,41.07
18,-0.02,0.98,0.12,43.74
18,-0.02,0.95,0.13,44.92
18,-0.04,1.01,0.13,45.36
18,-0.02,1.00,0.11,45.36
18,-0.02,0.99,0.13,40.37
18,-0.02,0.99,0.13,43.64
18,-0.03,1.01,0.13,43.64
18,-0.03,0.99,0.12,42.94
18,-0.03,0.99,0.06,42.52
18,-0.03,1.01,0.13,42.52
18,-0.03,1.00,0.13,40.66
18,-0.03,1.00,0.12,41.00
18,-0.02,0.99,0.12,40.89
18,-0.04,1.02,0.12,41.68
18,-0.04,1.05,0.12,45.94
18,-0.03,0.99,0.12,39.91
18,-0.02,1.00,0.13,39.91
18,-0.03,1.01,0.13,42.70
18,-0.03,1.01,0.13,46.43
18,-0.02,0.98,0.13,46.43
18,-0.03,1.01,0.12,41.45
18,-0.03,1.01,0.11,43.26
18,-0.02,1.00,0.11,43.26
18,-0.02,0.98,0.14,42.72
18,-0.02,0.95,0.13,45.60
18,-0.03,1.02,0.13,41.30
18,-0.01,0.99,0.11,41.30
18,-0.01,1.00,0.13,43.98
18,-0.03,1.00,0.18,42.88
18,-0.03,1.01,0.12,42.88
18,-0.02,0.99,0.12,38.91
18,-0.02,0.99,0.13,46.25
18,-0.04,1.02,0.13,46.25
18,-0.01,1.00,0.12,43.03
18,-0.01,1.06,0.13,47.65
18,-0.03,1.00,0.13,47.26
18,-0.04,1.02,0.13,43.34
18,-0.04,0.99,0.12,45.92
18,-0.02,0.99,0.12,41.23
18,-0.04,1.01,0.13,41.23
18,-0.03,1.00,0.12,40.08
18,-0.03,1.00,0.07,41.29
18,-0.02,0.99,0.13,41.29
18,-0.04,1.02,0.15,39.56
18,-0.04,1.02,0.13,36.58
18,-0.02,0.98,0.13,36.59
18,-0.03,1.00,0.13,43.64
18,-0.03,1.02,0.12,45.05
18,-0.03,1.02,0.12,45.34
18,-0.02,0.99,0.12,45.34
18,-0.03,1.01,0.14,43.95
18,-0.03,1.01,0.13,44.65
18,-0.04,1.00,0.13,44.65
18,-0.03,1.00,0.14,40.30
18,-0.03,1.00,0.13,43.31
18,-0.04,1.02,0.13,43.31
18,-0.02,0.99,0.11,42.39
18,-0.02,0.94,0.13,43.83
18,-0.04,1.01,0.13,48.99
18,-0.02,1.00,0.12,48.99
18,-0.02,0.99,0.11,43.32
18,-0.02,0.99,0.12,40.32
18,-0.03,1.01,0.12,40.32
18,-0.02,0.99,0.13,41.99
18,-0.02,0.99,0.13,47.29
18,-0.02,0.99,0.13,47.29
18,-0.04,1.01,0.12,44.90
18,-0.04,1.05,0.12,41.74
18,-0.02,0.98,0.12,41.75
18,-0.04,1.02,0.13,44.88
18,-0.04,1.01,0.12,40.14
18,-0.02,1.01,0.12,42.16
18,-0.03,0.99,0.13,42.16
18,-0.04,1.01,0.14,45.29
18,-0.04,1.01,0.18,45.79
18,-0.02,0.99,0.12,45.79
18,-0.04,1.00,0.12,41.79
18,-0.04,1.00,0.13,41.93
18,-0.03,1.01,0.13,41.70
18,-0.01,0.99,0.12,45.62
18,-0.01,0.94,0.12,46.43
18,-0.04,1.01,0.12,41.16
18,-0.02,0.99,0.11,41.16
18,-0.02,1.00,0.13,43.38
18,-0.03,1.00,0.18,46.68
18,-0.03,1.01,0.12,46.68
18,-0.02,0.98,0.13,37.25
18,-0.02,0.98,0.13,42.94
18,-0.04,1.02,0.13,42.94
18,-0.02,1.00,0.12,44.16
18,-0.02,1.06,0.13,43.26
18,-0.02,0.99,0.13,43.65
18,-0.04,1.02,0.13,42.08
18,-0.04,0.99,0.13,41.28
18,-0.03,0.99,0.13,44.22
18,-0.03,1.00,0.14,44.22
18,-0.03,1.01,0.11,42.04
18,-0.03,1.01,0.11,42.78
18,-0.03,0.99,0.11,42.78
18,-0.04,1.01,0.12,39.44
18,-0.04,1.01,0.12,41.75
18,-0.01,1.00,0.12,41.71
18,-0.03,0.99,0.13,41.71
18,-0.03,1.02,0.13,43.49
18,-0.03,1.02,0.13,45.40
18,-0.02,0.98,0.13,45.40
18,-0.05,1.01,0.12,42.54
18,-0.05,1.01,0.12,44.98
18,-0.02,1.00,0.12,44.98
18,-0.02,0.99,0.12,43.00
18,-0.02,0.99,0.12,40.85
18,-0.04,1.02,0.12,40.85
18,-0.02,1.00,0.12,43.45
18,-0.02,1.00,0.13,36.90
18,-0.03,1.00,0.13,43.48
18,-0.03,1.01,0.13,43.48
18,-0.03,0.99,0.12,43.29
18,-0.02,0.99,0.08,38.72
18,-0.04,1.02,0.14,38.72
18,-0.03,0.99,0.13,45.80
18,-0.03,0.99,0.12,45.56
18,-0.03,0.99,0.12,45.56
18,-0.03,1.01,0.12,43.75
18,-0.03,1.05,0.12,39.03
18,-0.02,0.99,0.12,38.49
18,-0.03,1.01,0.13,37.71
18,-0.03,1.00,0.14,41.46
18,-0.04,1.00,0.14,46.22
18,-0.02,0.98,0.13,46.22
18,-0.04,1.01,0.14,44.39
18,-0.04,1.01,0.19,45.47
18,-0.02,0.98,0.12,45.47
18,-0.03,1.00,0.14,42.20
18,-0.03,1.01,0.14,41.05
18,-0.03,1.01,0.14,41.36
18,-0.02,0.98,0.13,44.49
18,-0.02,1.01,0.13,45.46
18,-0.03,1.01,0.13,42.30
18,-0.02,1.00,0.12,42.30
18,-0.03,0.99,0.13,43.55
18,-0.03,0.99,0.14,41.65
18,-0.03,1.01,0.14,41.65
18,-0.02,0.98,0.11,48.09
18,-0.02,0.98,0.13,41.62
18,-0.04,1.01,0.13,41.71
18,-0.04,1.01,0.12,44.84
18,-0.04,1.05,0.13,43.33
18,-0.02,0.99,0.13,44.77
18,-0.03,1.01,0.14,44.77
18,-0.03,0.98,0.12,44.09
18,-0.03,0.98,0.07,39.88
18,-0.03,1.00,0.13,39.88
18,-0.03,1.00,0.13,48.00
18,-0.03,1.00,0.11,42.70
18,-0.02,0.99,0.11,42.70
18,-0.03,1.01,0.14,45.69
18,-0.03,1.01,0.13,39.76
18,-0.03,1.01,0.13,39.22
18,-0.03,0.99,0.13,44.71
18,-0.03,1.02,0.13,42.15
18,-0.05,1.02,0.18,40.06
18,-0.03,0.99,0.11,40.06
18,-0.04,1.00,0.12,40.50
18,-0.04,1.00,0.12,45.43
18,-0.03,1.01,0.12,45.43
18,-0.02,0.98,0.13,42.92
18,-0.02,0.95,0.14,50.26
18,-0.03,1.02,0.14,50.58
18,-0.03,0.99,0.10,43.53
18,-0.03,1.00,0.13,42.55
18,-0.03,1.00,0.13,38.05
18,-0.03,1.02,0.14,38.05
18,-0.00,0.98,0.12,45.24
18,-0.00,0.98,0.07,40.26
18,-0.03,1.01,0.13,40.26
18,-0.02,1.00,0.12,44.52
19,-0.01,0.99,0.12,42.31
19,-0.04,1.01,0.13,48.20
19,-0.04,1.06,0.12,45.31
19,-0.02,0.99,0.12,41.25
19,-0.02,1.00,0.13,41.25
19,-0.02,1.02,0.13,43.68
19,-0.03,1.02,0.17,42.70
19,-0.02,0.99,0.11,42.70
19,-0.04,1.00,0.12,48.20
19,-0.04,1.00,0.13,40.53
19,-0.02,1.00,0.13,40.53
19,-0.02,0.99,0.12,47.46
19,-0.02,0.96,0.13,42.09
19,-0.04,1.02,0.13,42.06
19,-0.02,0.99,0.12,39.71
19,-0.02,1.00,0.12,49.27
19,-0.03,1.00,0.12,53.19
19,-0.04,1.00,0.12,53.19
19,-0.03,0.99,0.12,44.49
19,-0.03,0.99,0.12,43.22
19,-0.04,1.01,0.12,43.22
19,-0.03,1.00,0.11,42.98
19,-0.03,0.99,0.13,39.65
19,-0.03,0.99,0.13,39.41
19,-0.03,1.02,0.13,42.54
19,-0.03,0.99,0.13,42.33
19,-0.02,0.99,0.13,42.85
19,-0.04,1.00,0.14,42.85
19,-0.03,1.01,0.13,44.83
19,-0.03,1.01,0.13,43.58
19,-0.01,0.99,0.13,43.58
19,-0.04,1.01,0.13,45.90
19,-0.04,1.01,0.13,45.32
19,-0.02,0.99,0.13,45.13
19,-0.02,0.99,0.12,44.35
19,-0.02,0.95,0.13,47.52
19,-0.04,1.02,0.13,38.05
19,-0.03,0.98,0.13,38.05
19,-0.03,1.01,0.13,41.57
19,-0.03,1.01,0.18,42.15
19,-0.04,1.00,0.12,42.15
19,-0.02,0.99,0.13,37.00
19,-0.02,0.99,0.13,46.65
19,-0.03,1.01,0.13,46.65
19,-0.03,0.99,0.11,44.06
19,-0.03,0.99,0.13,42.58
19,-0.03,0.99,0.13,40.01
19,-0.03,1.00,0.13,40.01
19,-0.03,0.99,0.13,48.42
19,-0.02,0.99,0.14,39.46
19,-0.04,1.01,0.14,39.46
19,-0.02,0.99,0.12,41.50
19,-0.02,0.99,0.13,42.22
19,-0.03,0.99,0.13,42.22
19,-0.03,1.01,0.13,43.80
19,-0.03,1.04,0.12,47.86
19,-0.01,0.98,0.12,47.85
19,-0.04,1.01,0.13,46.28
19,-0.04,1.00,0.12,43.32
19,-0.02,1.00,0.12,41.63
19,-0.03,0.99,0.12,41.63
19,-0.04,1.01,0.13,40.49
19,-0.04,1.01,0.18,38.65
19,-0.02,0.99,0.12,38.65
19,-0.02,1.01,0.13,42.58
19,-0.02,1.02,0.13,45.05
19,-0.03,1.02,0.13,45.33
19,-0.02,0.98,0.13,41.42
19,-0.02,1.01,0.13,42.37
19,-0.04,1.01,0.13,43.35
19,-0.03,1.01,0.13,43.35
19,-0.03,0.99,0.12,43.73
19,-0.03,0.99,0.06,43.85
19,-0.03,1.02,0.13,43.85
19,-0.02,0.99,0.11,47.44
19,-0.02,0.99,0.14,50.84
19,-0.04,1.00,0.14,50.52
19,-0.02,1.01,0.14,47.39
19,-0.02,1.05,0.12,44.03
19,-0.02,0.99,0.12,42.22
19,-0.04,1.01,0.14,42.22
19,-0.04,1.00,0.12,44.41
19,-0.02,1.00,0.12,36.90
19,-0.03,1.00,0.12,36.90
19,-0.03,1.01,0.13,41.22
19,-0.03,1.01,0.13,42.95
19,-0.02,0.99,0.13,42.95
19,-0.04,1.02,0.13,42.85
19,-0.04,1.00,0.13,44.16
19,-0.03,1.00,0.13,43.92
19,-0.02,0.99,0.13,42.36
19,-0.02,1.01,0.13,49.04
19,-0.03,1.01,0.13,45.15
19,-0.02,0.99,0.13,45.15
19,-0.04,1.00,0.13,41.20
19,-0.04,1.00,0.12,41.42
19,-0.03,1.01,0.12,41.42
19,-0.02,0.98,0.12,41.83
19,-0.02,0.95,0.14,42.03
19,-0.04,1.01,0.14,41.91
19,-0.03,1.00,0.13,46.61
19,-0.03,0.99,0.12,39.31
19,-0.03,0.99,0.12,38.86
19,-0.04,1.01,0.12,38.86
19,-0.02,0.99,0.12,44.45
19,-0.02,0.99,0.07,44.39
19,-0.03,1.01,0.13,44.39
19,-0.02,0.99,0.12,43.26
19,-0.02,0.99,0.12,40.85
19,-0.03,0.99,0.12,41.13
19,-0.03,1.02,0.14,43.48
19,-0.03,0.98,0.11,44.09
19,-0.02,0.98,0.11,40.42
19,-0.03,1.01,0.13,40.42
19,-0.03,1.02,0.12,46.37
19,-0.03,1.02,0.12,42.38
19,-0.02,0.98,0.12,42.38
19,-0.04,1.01,0.13,42.07
19,-0.04,1.01,0.12,44.14
19,-0.03,1.00,0.12,44.55
19,-0.03,0.99,0.12,44.55
19,-0.03,0.94,0.14,40.93
19,-0.03,1.01,0.14,42.51
19,-0.02,0.98,0.13,42.51
19,-0.02,1.01,0.12,48.50
19,-0.03,1.01,0.06,43.76
19,-0.04,1.00,0.13,43.76
19,-0.02,0.99,0.13,43.04
19,-0.02,0.99,0.13,40.86
19,-0.04,1.01,0.13,40.86
19,-0.03,0.98,0.12,42.35
19,-0.03,1.00,0.13,44.56
19,-0.03,1.00,0.13,44.11
19,-0.04,1.02,0.13,44.89
19,-0.04,0.99,0.11,42.75
19,-0.02,0.99,0.11,41.34
19,-0.04,1.01,0.13,41.34
19,-0.03,1.00,0.12,41.87
19,-0.03,1.00,0.12,43.07
19,-0.02,0.99,0.12,43.07
19,-0.03,1.02,0.13,50.57
19,-0.03,1.05,0.12,44.92
19,-0.02,0.99,0.12,45.17
19,-0.04,1.00,0.12,41.25
19,-0.04,0.99,0.12,42.97
19,-0.03,0.99,0.12,44.41
19,-0.02,0.98,0.13,44.41
19,-0.04,1.02,0.12,47.34
19,-0.04,1.02,0.07,45.61
19,-0.03,0.99,0.13,45.61
19,-0.03,1.00,0.13,42.48
19,-0.03,1.00,0.13,43.89
19,-0.03,1.02,0.13,44.57
19,-0.03,0.99,0.13,43.01
19,-0.03,1.01,0.12,47.10
19,-0.04,1.01,0.12,48.10
19,-0.03,1.00,0.13,48.10
19,-0.03,0.99,0.12,49.76
19,-0.03,0.99,0.12,41.98
19,-0.03,1.02,0.12,41.98
19,-0.02,0.99,0.11,45.64
19,-0.02,0.99,0.13,42.29
19,-0.03,1.00,0.13,42.29
19,-0.03,1.01,0.12,42.46
19,-0.03,1.05,0.12,45.41
19,-0.02,0.98,0.12,39.13
19,-0.04,1.01,0.13,39.13
19,-0.04,0.99,0.13,44.80
19,-0.03,0.99,0.13,38.46
19,-0.02,1.00,0.13,38.46
19,-0.04,1.01,0.13,38.76
19,-0.04,1.01,0.13,41.81
19,-0.02,0.99,0.13,41.81
19,-0.03,1.00,0.12,41.71
19,-0.03,1.06,0.12,42.87
19,-0.03,1.00,0.12,42.63
19,-0.02,0.98,0.12,41.85
19,-0.02,1.01,0.13,48.44
19,-0.04,1.01,0.13,43.92
19,-0.02,1.00,0.13,43.92
19,-0.03,0.99,0.14,44.92
19,-0.03,0.99,0.12,42.07
19,-0.04,1.01,0.12,42.07
19,-0.03,0.98,0.13,48.08
19,-0.03,0.95,0.13,38.45
19,-0.04,1.01,0.13,38.43
19,-0.02,1.00,0.12,39.21
19,-0.02,1.00,0.13,47.31
19,-0.03,1.00,0.13,40.76
19,-0.03,1.02,0.13,40.76
19,-0.03,0.99,0.13,40.48
19,-0.03,0.99,0.14,43.61
19,-0.03,1.01,0.14,43.61
19,-0.03,1.01,0.12,43.82
19,-0.03,1.01,0.13,45.51
19,-0.03,0.99,0.13,45.96
19,-0.03,1.01,0.13,41.26
19,-0.03,1.05,0.14,43.75
19,-0.03,0.99,0.14,43.87
19,-0.03,1.00,0.13,43.87
19,-0.03,1.01,0.13,39.17
19,-0.03,1.01,0.13,42.72
19,-0.02,1.00,0.13,42.72
19,-0.03,1.01,0.14,48.98
19,-0.03,1.01,0.13,45.56
19,-0.02,1.00,0.13,45.56
19,-0.02,0.98,0.12,47.29
19,-0.02,0.95,0.12,41.69
19,-0.03,1.01,0.12,46.39
19,-0.02,0.99,0.12,46.39
19,-0.02,1.00,0.12,43.85
19,-0.03,1.00,0.06,40.00
19,-0.03,1.01,0.13,40.00
19,-0.03,0.98,0.13,40.86
19,-0.03,0.98,0.13,41.28
19,-0.05,1.00,0.13,41.28
19,-0.03,0.99,0.13,41.59
19,-0.03,0.99,0.14,39.81
19,-0.03,0.99,0.14,39.76
19,-0.03,1.02,0.13,44.46
19,-0.03,0.99,0.12,37.89
19,-0.02,0.99,0.12,41.38
19,-0.05,1.01,0.13,41.38
19,-0.03,0.99,0.12,41.91
19,-0.03,0.99,0.12,43.73
19,-0.02,0.98,0.12,43.73
19,-0.04,1.01,0.12,50.69
19,-0.04,1.05,0.11,41.61
19,-0.03,0.98,0.11,42.13
19,-0.03,1.01,0.12,40.56
19,-0.03,1.01,0.12,42.96
19,-0.03,1.01,0.12,42.26
20,-0.02,1.00,0.13,45.49
20,-0.03,1.00,0.14,43.45
20,-0.04,1.01,0.12,39.55
20,-0.04,1.01,0.07,43.09
20,-0.02,0.99,0.13,43.09
20,-0.03,1.01,0.13,40.96
20,-0.03,1.01,0.12,47.00
20,-0.03,1.00,0.12,47.50
20,-0.02,1.00,0.13,38.10
20,-0.02,0.95,0.13,41.71
20,-0.03,1.01,0.13,46.26
20,-0.02,0.99,0.12,46.26
20,-0.02,1.00,0.14,40.01
20,-0.04,1.00,0.13,41.08
20,-0.03,1.02,0.13,41.08
20,-0.02,0.99,0.12,41.75
20,-0.02,0.99,0.14,49.35
20,-0.03,1.01,0.14,49.35
20,-0.02,1.00,0.12,38.80
20,-0.02,1.00,0.12,43.08
20,-0.03,1.00,0.12,43.19
20,-0.03,1.01,0.13,41.62
20,-0.03,0.99,0.13,44.25
20,-0.02,0.99,0.13,44.64
20,-0.03,1.01,0.13,44.64
20,-0.03,1.00,0.13,45.31
20,-0.03,1.00,0.14,42.21
20,-0.03,0.99,0.14,42.21
20,-0.04,1.02,0.13,37.38
20,-0.04,1.02,0.12,40.48
20,-0.02,0.99,0.12,40.43
20,-0.03,1.00,0.13,40.43
20,-0.03,0.94,0.12,41.85
20,-0.04,1.01,0.12,40.52
20,-0.02,0.99,0.12,40.52
20,-0.04,1.01,0.12,46.93
20,-0.04,1.01,0.07,44.54
20,-0.02,1.00,0.13,44.54
20,-0.03,1.00,0.13,46.66
20,-0.03,1.00,0.13,44.81
20,-0.04,1.01,0.13,44.81
20,-0.02,0.99,0.12,39.16
20,-0.02,0.95,0.13,40.16
20,-0.03,1.01,0.13,39.96
20,-0.03,1.01,0.13,40.74
20,-0.03,0.99,0.13,41.35
20,-0.03,0.99,0.13,46.07
20,-0.04,1.01,0.12,46.07
20,-0.02,0.99,0.12,42.55
20,-0.02,0.99,0.12,45.17
20,-0.02,1.00,0.12,45.17
20,-0.03,1.01,0.13,43.57
20,-0.03,1.05,0.12,46.67
20,-0.03,0.99,0.12,46.16
20,-0.03,1.01,0.12,46.16
20,-0.03,1.00,0.12,46.87
20,-0.04,1.00,0.12,43.50
20,-0.02,0.99,0.13,43.50
20,-0.03,1.01,0.13,48.06
20,-0.03,1.01,0.19,47.06
20,-0.03,1.00,0.12,47.06
20,-0.04,1.01,0.14,41.39
20,-0.04,1.01,0.11,46.14
20,-0.03,0.99,0.11,45.71
20,-0.02,0.99,0.13,48.06
20,-0.02,0.95,0.15,44.62
20,-0.03,1.02,0.15,50.77
20,-0.01,1.00,0.12,50.77
20,-0.01,1.01,0.12,43.95
20,-0.03,1.01,0.11,41.34
20,-0.04,1.00,0.11,41.34
20,-0.02,0.99,0.11,38.73
20,-0.02,0.99,0.13,43.00
20,-0.04,1.01,0.13,43.00
20,-0.03,1.00,0.13,46.95
20,-0.03,1.00,0.13,47.09
20,-0.02,1.00,0.13,47.01
20,-0.04,1.02,0.12,40.75
20,-0.04,0.99,0.12,45.58
20,-0.03,0.99,0.12,42.77
20,-0.03,1.01,0.12,42.77
20,-0.03,1.01,0.12,40.28
20,-0.03,1.01,0.12,49.24
20,-0.01,0.99,0.12,49.24
20,-0.03,1.02,0.13,38.93
20,-0.03,1.02,0.12,44.01
20,-0.02,1.00,0.12,44.48
20,-0.03,0.99,0.12,42.91
20,-0.03,1.01,0.11,38.37
20,-0.04,1.01,0.11,39.27
20,-0.03,0.98,0.12,39.27
20,-0.04,1.01,0.13,43.98
20,-0.04,1.01,0.18,46.37
20,-0.03,1.00,0.12,46.37
20,-0.03,0.99,0.12,42.51
20,-0.03,0.99,0.12,41.83
20,-0.04,1.01,0.12,41.83
20,-0.03,0.98,0.12,46.90
20,-0.03,0.94,0.13,39.89
20,-0.03,1.00,0.13,40.16
20,-0.03,1.00,0.12,42.51
20,-0.03,0.99,0.12,35.22
20,-0.02,0.99,0.06,43.99
20,-0.04,1.01,0.13,43.99
20,-0.02,1.00,0.12,43.96
20,-0.02,1.00,0.13,44.60
20,-0.03,0.99,0.13,44.60
20,-0.04,1.02,0.14,40.82
20,-0.04,1.05,0.13,42.37
20,-0.01,0.99,0.13,42.97
20,-0.03,1.01,0.12,46.89
20,-0.03,1.02,0.13,38.81
20,-0.02,1.02,0.13,41.54
20,-0.02,1.00,0.12,41.54
20,-0.04,1.01,0.12,47.90
20,-0.04,1.01,0.12,46.06
20,-0.02,0.99,0.12,46.06
20,-0.03,0.99,0.14,40.48
20,-0.03,0.99,0.14,39.04
20,-0.04,1.00,0.14,38.62
20,-0.03,1.00,0.12,44.89
20,-0.03,0.94,0.13,43.53
20,-0.03,1.01,0.13,39.48
20,-0.02,1.00,0.12,39.48
20,-0.02,0.99,0.13,39.82
20,-0.03,0.99,0.13,39.83
20,-0.04,1.02,0.13,39.83
20,-0.03,0.99,0.12,44.92
20,-0.03,0.99,0.12,43.50
20,-0.03,1.00,0.12,43.50
20,-0.03,1.01,0.11,42.94
20,-0.03,1.05,0.12,43.29
20,-0.02,0.99,0.12,43.70
20,-0.04,1.02,0.14,42.91
20,-0.04,0.99,0.12,43.76
20,-0.03,0.99,0.12,41.49
20,-0.03,1.00,0.13,41.49
20,-0.04,1.01,0.13,41.40
20,-0.04,1.01,0.18,49.50
20,-0.02,0.99,0.12,49.50
20,-0.03,1.01,0.12,45.47
20,-0.03,1.01,0.12,45.58
20,-0.03,1.01,0.12,45.87
20,-0.01,0.98,0.12,45.08
20,-0.01,0.95,0.13,46.54
20,-0.04,1.02,0.13,37.52
20,-0.03,0.99,0.12,37.52
20,-0.04,1.01,0.13,36.30
20,-0.04,1.01,0.13,43.95
20,-0.03,1.01,0.13,43.95
20,-0.02,0.98,0.12,45.23
20,-0.02,0.98,0.13,38.83
20,-0.04,1.01,0.13,38.83
20,-0.03,0.99,0.13,39.26
20,-0.03,0.99,0.13,47.24
20,-0.03,0.99,0.13,46.11
20,-0.03,1.01,0.13,46.11
20,-0.03,0.98,0.13,47.21
20,-0.02,0.98,0.13,37.63
20,-0.04,1.01,0.13,37.63
20,-0.03,1.00,0.12,44.39
20,-0.03,1.00,0.13,42.56
20,-0.02,0.99,0.13,42.56
20,-0.04,1.02,0.13,46.42
20,-0.04,1.06,0.12,46.60
20,-0.02,0.99,0.12,46.73
20,-0.02,1.00,0.13,43.60
20,-0.02,1.02,0.12,42.69
20,-0.03,1.02,0.12,39.37
20,-0.02,0.99,0.13,39.37
20,-0.03,1.02,0.12,42.83
20,-0.03,1.02,0.12,43.33
20,-0.03,0.99,0.12,43.33
20,-0.02,1.00,0.13,42.99
20,-0.02,1.00,0.12,44.40
20,-0.04,1.02,0.12,43.99
20,-0.02,0.99,0.12,43.99
20,-0.02,0.94,0.12,42.86
20,-0.04,1.01,0.12,40.11
20,-0.03,1.00,0.13,40.11
20,-0.03,0.99,0.13,37.68
20,-0.03,0.99,0.13,46.23
20,-0.04,1.01,0.13,46.23
20,-0.03,1.00,0.12,40.71
20,-0.03,1.00,0.13,42.64
20,-0.03,0.99,0.13,42.64
20,-0.03,1.01,0.12,42.04
20,-0.03,1.05,0.12,42.72
20,-0.02,0.99,0.12,42.78
20,-0.04,1.01,0.14,42.00
20,-0.04,1.01,0.13,42.18
20,-0.03,1.01,0.13,42.59
20,-0.03,0.99,0.13,42.59
20,-0.04,1.01,0.13,42.66
20,-0.04,1.01,0.18,43.75
20,-0.02,1.00,0.12,43.75
20,-0.03,1.00,0.13,37.15
20,-0.03,1.00,0.12,41.01
20,-0.04,1.00,0.12,41.33
20,-0.02,0.98,0.12,42.90
20,-0.02,0.94,0.13,49.19
20,-0.04,1.00,0.13,40.99
20,-0.03,0.99,0.12,40.99
20,-0.03,1.00,0.13,41.64
20,-0.03,1.00,0.18,44.14
20,-0.03,1.02,0.12,44.14
20,-0.03,0.98,0.13,40.94
21,-0.03,1.00,0.13,46.66
21,-0.03,1.01,0.12,38.62
21,-0.03,1.05,0.12,40.51
21,-0.01,0.99,0.12,40.20
21,-0.03,1.01,0.13,43.33
21,-0.03,0.99,0.12,43.12
21,-0.02,0.99,0.12,47.15
21,-0.03,0.99,0.12,47.15
21,-0.04,1.01,0.13,44.14
21,-0.04,1.01,0.12,43.72
21,-0.01,0.99,0.12,43.72
21,-0.03,1.00,0.13,37.76
21,-0.03,1.00,0.12,40.86
21,-0.03,1.00,0.12,40.73
21,-0.02,1.00,0.12,40.73
21,-0.02,1.02,0.12,40.86
21,-0.04,1.02,0.12,43.52
21,-0.02,0.98,0.12,43.52
21,-0.02,1.00,0.12,46.83
21,-0.02,1.00,0.07,43.08
21,-0.04,1.01,0.14,43.08
21,-0.02,0.99,0.11,42.61
21,-0.02,0.99,0.12,41.33
21,-0.03,1.01,0.12,41.33
21,-0.03,1.00,0.11,41.68
21,-0.03,1.00,0.13,41.04
21,-0.03,1.00,0.13,40.94
21,-0.04,1.01,0.14,40.94
21,-0.04,0.99,0.13,44.57
21,-0.02,0.99,0.14,43.25
21,-0.04,1.00,0.14,43.25
21,-0.03,1.01,0.13,37.48
21,-0.03,1.01,0.13,40.37
21,-0.03,1.00,0.13,40.37
21,-0.03,1.01,0.14,41.85
21,-0.03,1.05,0.12,45.33
21,-0.02,0.99,0.12,45.05
21,-0.03,0.99,0.13,45.84
21,-0.03,1.01,0.12,41.68
21,-0.04,1.01,0.12,40.20
21,-0.03,0.99,0.13,40.20
21,-0.03,1.01,0.14,44.74
21,-0.03,1.01,0.18,39.58
21,-0.03,1.00,0.12,39.58
21,-0.04,0.98,0.13,44.24
21,-0.04,0.98,0.13,43.42
21,-0.04,1.02,0.13,43.58
21,-0.03,0.99,0.12,47.50
21,-0.03,1.00,0.13,43.87
21,-0.03,1.00,0.13,45.90
21,-0.02,1.01,0.12,45.90
21,-0.03,0.98,0.12,44.12
21,-0.03,0.98,0.08,47.51
21,-0.03,1.01,0.14,47.51
21,-0.02,1.00,0.13,40.37
21,-0.02,1.00,0.14,46.37
21,-0.03,1.00,0.14,46.37
21,-0.03,1.01,0.14,42.78
21,-0.03,1.05,0.13,40.76
21,-0.02,0.99,0.13,40.71
21,-0.04,1.01,0.13,41.49
21,-0.04,1.01,0.12,44.21
21,-0.03,1.01,0.12,42.04
21,-0.03,0.99,0.13,42.04
21,-0.03,1.01,0.12,46.11
21,-0.03,1.01,0.11,44.23
21,-0.02,0.98,0.11,44.23
21,-0.03,1.00,0.12,43.80
21,-0.03,0.94,0.12,41.25
21,-0.04,1.00,0.12,40.76
21,-0.02,0.98,0.13,39.98
21,-0.02,1.01,0.13,45.79
21,-0.04,1.01,0.13,41.07
21,-0.04,1.00,0.13,41.07
21,-0.03,0.99,0.12,42.92
21,-0.03,0.99,0.07,41.54
21,-0.04,1.01,0.13,41.54
21,-0.01,0.99,0.12,40.12
21,-0.01,0.99,0.13,41.90
21,-0.04,1.00,0.13,41.58
21,-0.03,1.00,0.13,45.50
21,-0.03,1.05,0.12,43.12
21,-0.03,0.99,0.12,45.30
21,-0.03,1.01,0.13,45.30
21,-0.03,0.99,0.13,41.46
21,-0.02,0.99,0.13,45.46
21,-0.03,0.99,0.13,45.46
21,-0.03,1.02,0.12,44.35
21,-0.03,1.02,0.13,45.55
21,-0.02,0.99,0.13,45.55
21,-0.03,1.00,0.12,42.57
21,-0.03,1.06,0.13,42.36
21,-0.04,1.00,0.13,42.42
21,-0.03,1.00,0.13,37.72
21,-0.03,1.01,0.14,41.53
21,-0.02,1.01,0.14,45.86
21,-0.02,0.99,0.12,45.86
21,-0.03,1.01,0.12,40.72
21,-0.03,1.01,0.14,40.61
21,-0.03,1.01,0.14,40.61
21,-0.02,0.99,0.11,37.03
21,-0.02,0.95,0.13,49.20
21,-0.05,1.01,0.13,48.52
21,-0.02,1.00,0.12,37.55
21,-0.02,0.99,0.13,41.90
21,-0.03,0.99,0.13,41.68
21,-0.03,1.01,0.13,41.68
21,-0.03,0.98,0.13,43.72
21,-0.03,0.98,0.13,45.07
21,-0.03,1.01,0.13,45.07
21,-0.03,1.01,0.13,52.44
21,-0.03,1.01,0.12,45.18
21,-0.02,0.99,0.12,44.71
21,-0.04,1.01,0.13,43.15
21,-0.04,1.05,0.13,45.82
21,-0.02,0.98,0.13,41.90
21,-0.02,1.00,0.14,41.90
21,-0.02,1.00,0.12,46.40
21,-0.03,1.00,0.07,43.07
21,-0.02,0.99,0.13,43.07
21,-0.04,1.01,0.13,44.64
21,-0.04,1.01,0.12,42.72
21,-0.04,1.00,0.12,42.72
21,-0.03,1.00,0.13,44.86
21,-0.03,0.95,0.13,44.12
21,-0.04,1.01,0.13,43.96
21,-0.02,0.99,0.13,46.31
21,-0.02,1.01,0.14,43.53
21,-0.04,1.01,0.14,41.11
21,-0.02,0.99,0.13,41.11
21,-0.03,0.98,0.12,46.23
21,-0.03,0.98,0.12,41.56
21,-0.03,1.02,0.12,41.56
21,-0.02,0.99,0.11,42.15
21,-0.02,0.99,0.12,44.33
21,-0.03,1.00,0.12,44.43
21,-0.03,1.01,0.12,46.78
21,-0.03,1.05,0.12,41.14
21,-0.03,0.99,0.12,39.78
21,-0.04,1.01,0.13,39.78
21,-0.04,1.00,0.13,44.87
21,-0.02,1.00,0.13,43.71
21,-0.02,0.99,0.13,43.71
21,-0.04,1.01,0.13,41.74
21,-0.04,1.01,0.11,44.51
21,-0.01,0.99,0.11,44.51
21,-0.04,1.00,0.13,42.67
21,-0.04,1.01,0.11,38.98
21,-0.03,1.01,0.11,38.75
21,-0.02,0.98,0.13,47.37
21,-0.02,1.01,0.14,44.54
21,-0.04,1.01,0.14,43.59
21,-0.03,1.00,0.13,43.59
21,-0.02,1.00,0.12,44.09
21,-0.02,1.00,0.13,41.59
21,-0.03,1.01,0.13,41.59
21,-0.02,0.99,0.12,40.85
21,-0.02,0.95,0.13,41.40
21,-0.03,1.01,0.13,41.18
21,-0.03,0.99,0.12,46.67
21,-0.03,0.99,0.12,49.71
21,-0.03,0.99,0.12,43.23
21,-0.04,1.02,0.13,43.23
21,-0.02,1.00,0.13,45.13
21,-0.02,1.00,0.19,45.78
21,-0.04,1.00,0.12,45.78
21,-0.04,1.00,0.13,44.55
21,-0.04,1.00,0.13,43.33
21,-0.03,0.99,0.13,43.33
21,-0.04,1.00,0.14,47.32
21,-0.04,1.00,0.13,42.18
21,-0.03,1.00,0.13,47.78
21,-0.03,0.99,0.12,47.78
21,-0.03,1.02,0.12,38.32
21,-0.03,1.02,0.12,48.64
21,-0.02,0.99,0.12,48.64
21,-0.03,1.00,0.13,43.50
21,-0.03,1.00,0.12,44.23
21,-0.02,1.00,0.12,44.23
21,-0.02,1.00,0.13,40.76
21,-0.02,0.95,0.13,44.22
21,-0.04,1.01,0.13,44.37
21,-0.03,0.98,0.13,48.29
21,-0.03,1.00,0.13,41.50
21,-0.03,1.00,0.13,45.49
21,-0.04,1.01,0.12,45.49
21,-0.02,0.98,0.12,40.92
21,-0.02,0.98,0.07,40.88
21,-0.04,1.01,0.13,40.88
21,-0.03,0.99,0.12,44.32
21,-0.03,0.99,0.13,41.69
21,-0.03,0.99,0.13,41.96
21,-0.03,1.01,0.13,42.74
21,-0.03,0.99,0.13,40.41
21,-0.03,0.99,0.13,40.69
21,-0.03,1.00,0.13,40.69
21,-0.02,1.00,0.11,45.63
21,-0.02,1.00,0.12,43.63
21,-0.02,0.99,0.12,43.63
21,-0.04,1.02,0.13,39.57
21,-0.04,1.02,0.13,38.39
21,-0.03,0.99,0.13,38.39
21,-0.04,1.00,0.14,42.39
21,-0.04,1.01,0.12,39.89
21,-0.03,1.01,0.12,40.17
21,-0.03,0.99,0.12,36.25
21,-0.03,1.00,0.13,44.24
21,-0.04,1.00,0.13,42.89
21,-0.03,1.00,0.13,42.89
21,-0.02,1.00,0.12,43.20
21,-0.02,1.00,0.13,44.27
21,-0.03,1.01,0.13,44.27
21,-0.02,0.99,0.13,38.54
21,-0.02,0.94,0.13,48.08
21,-0.03,1.00,0.13,47.98
21,-0.03,1.00,0.14,40.15
21,-0.03,1.00,0.13,38.21
21,-0.03,1.00,0.13,37.45
21,-0.04,1.01,0.14,37.45
21,-0.03,0.99,0.12,47.28
21,-0.03,0.99,0.06,46.00
21,-0.03,0.99,0.13,46.00
21,-0.03,1.01,0.12,43.23
21,-0.03,1.01,0.13,46.61
21,-0.02,0.99,0.13,46.61
21,-0.04,1.01,0.13,42.46
21,-0.04,1.00,0.12,43.55
21,-0.03,1.00,0.12,46.46
21,-0.02,1.00,0.13,46.46
21,-0.02,1.01,0.13,43.23
21,-0.03,1.01,0.18,42.33
21,-0.02,0.98,0.12,42.33
22,-0.03,0.99,0.07,41.68
22,-0.03,1.01,0.14,41.68
22,-0.02,0.99,0.12,42.16
22,-0.02,0.99,0.13,47.41
22,-0.03,1.01,0.13,47.41
22,-0.02,1.00,0.12,44.25
22,-0.02,1.06,0.12,43.45
22,-0.03,0.99,0.12,43.62
22,-0.04,1.01,0.13,39.71
22,-0.04,0.99,0.13,38.83
22,-0.02,0.99,0.13,42.10
22,-0.03,1.00,0.12,42.10
22,-0.03,1.00,0.12,42.55
22,-0.03,1.00,0.07,38.16
22,-0.02,0.99,0.13,38.16
22,-0.03,1.01,0.13,44.82
22,-0.03,1.06,0.13,41.27
22,-0.02,1.00,0.13,40.72
22,-0.03,1.00,0.13,38.37
22,-0.03,1.00,0.14,44.16
22,-0.04,1.00,0.14,47.16
22,-0.02,0.99,0.12,47.16
22,-0.03,1.01,0.12,43.26
22,-0.03,1.01,0.06,45.91
22,-0.03,1.00,0.13,45.91
22,-0.02,0.99,0.12,47.84
22,-0.02,0.99,0.13,43.94
22,-0.04,1.02,0.13,44.52
22,-0.02,0.99,0.13,41.38
22,-0.02,1.00,0.13,41.79
22,-0.03,1.00,0.13,40.73
22,-0.03,1.01,0.13,40.73
22,-0.03,0.99,0.13,44.02
22,-0.02,0.99,0.19,46.18
22,-0.03,1.01,0.12,46.18
22,-0.02,1.00,0.12,46.28
22,-0.02,1.00,0.12,42.91
22,-0.03,1.00,0.12,42.91
22,-0.03,1.01,0.13,42.19
22,-0.03,1.05,0.12,40.73
22,-0.02,0.99,0.12,41.07
22,-0.04,1.00,0.13,47.34
22,-0.04,1.00,0.13,43.55
22,-0.03,1.00,0.13,43.49
22,-0.02,0.99,0.13,43.49
22,-0.03,1.01,0.13,43.16
22,-0.03,1.01,0.13,43.41
22,-0.03,1.00,0.13,43.41
22,-0.03,0.99,0.12,45.00
22,-0.03,0.99,0.14,38.90
22,-0.03,1.02,0.14,38.58
22,-0.03,0.99,0.12,39.36
22,-0.03,1.01,0.12,41.43
22,-0.03,1.01,0.12,43.92
22,-0.02,1.00,0.12,43.92
22,-0.02,1.00,0.13,45.96
22,-0.02,1.00,0.14,48.35
22,-0.04,1.01,0.14,48.35
22,-0.02,0.99,0.11,42.28
22,-0.02,0.99,0.13,48.18
22,-0.04,1.00,0.13,48.18
22,-0.04,1.00,0.13,40.42
22,-0.04,1.05,0.12,41.64
22,-0.03,0.99,0.12,41.88
22,-0.03,1.01,0.13,43.45
22,-0.03,1.00,0.11,41.42
22,-0.03,1.00,0.11,45.22
22,-0.02,1.00,0.13,45.22
22,-0.03,1.01,0.13,42.95
22,-0.03,1.01,0.12,44.36
22,-0.03,0.99,0.12,44.36
