seconds, accX, accY, accZ, temp
1,0.10,1.17,0.02,45.31
1,0.23,1.15,0.02,42.38
1,0.23,1.17,0.20,47.41
1,-0.07,0.79,0.20,47.61
1,-0.26,1.07,0.24,47.61
1,-0.26,0.83,0.14,45.86
1,-0.21,0.83,0.14,50.97
1,0.06,1.03,0.04,50.97
1,0.01,1.26,-0.01,42.46
1,0.26,1.26,-0.04,49.09
1,0.01,0.84,0.14,49.09
1,-0.22,1.02,0.27,44.95
1,-0.22,1.02,0.16,46.90
1,-0.23,0.95,0.16,46.35
1,0.01,0.87,0.11,45.57
1,0.01,0.83,-0.03,43.78
1,0.22,1.33,-0.03,46.64
1,0.05,0.89,0.09,46.64
1,0.05,0.95,0.28,48.09
1,-0.16,0.95,0.27,43.00
1,-0.27,1.04,0.15,43.00
1,-0.08,0.80,0.13,42.86
1,-0.08,0.80,0.00,43.74
1,0.14,1.30,0.00,43.74
1,0.13,0.97,0.04,43.65
1,0.13,0.94,0.24,45.15
1,-0.09,0.88,0.24,44.69
1,-0.27,1.11,0.17,42.34
1,-0.27,0.77,0.14,47.90
1,-0.12,0.77,0.14,41.53
1,0.11,1.20,0.03,41.53
1,0.08,1.06,0.00,44.83
1,0.21,1.06,0.01,41.05
1,-0.03,0.83,0.20,41.05
1,-0.26,1.10,0.20,42.33
1,-0.26,1.08,0.15,46.15
1,-0.18,0.83,0.15,46.71
1,0.05,1.07,0.08,43.58
1,0.05,1.18,-0.04,42.08
1,0.24,1.18,-0.04,40.95
1,0.02,0.83,0.17,40.95
1,0.04,1.04,0.26,40.72
1,-0.27,1.04,0.28,43.45
1,-0.22,0.93,0.16,43.45
1,0.00,0.95,0.10,43.19
1,0.00,0.95,-0.04,42.63
1,0.21,1.26,-0.04,42.41
1,0.06,0.88,0.13,40.85
1,0.06,0.93,0.27,41.22
1,-0.22,0.93,0.27,44.04
1,-0.23,1.04,0.14,44.04
1,-0.23,0.86,0.14,45.67
1,-0.07,0.86,0.16,44.50
1,0.15,1.27,-0.02,44.50
1,0.13,0.97,0.10,45.21
1,0.13,0.97,0.26,48.49
1,-0.15,0.84,0.26,48.49
1,-0.23,1.09,0.15,51.09
1,-0.23,1.11,0.14,47.21
1,-0.13,0.80,0.14,47.64
1,0.10,1.21,0.01,46.85
1,0.10,1.09,0.04,46.38
1,0.22,1.09,0.04,43.53
1,-0.09,0.80,0.21,43.53
1,-0.06,1.09,0.21,45.72
1,-0.25,1.09,0.21,39.75
1,-0.17,0.81,0.15,39.75
1,0.06,1.09,0.03,39.62
1,0.06,1.09,0.00,44.54
1,0.25,1.19,0.00,44.09
1,-0.03,0.82,0.17,45.66
1,-0.03,0.85,0.26,39.60
1,-0.25,1.04,0.26,37.38
1,-0.22,0.89,0.16,37.38
1,-0.22,0.95,0.06,46.29
1,0.01,0.95,0.10,40.02
1,0.25,1.30,-0.03,40.02
1,0.02,0.86,0.12,43.74
1,0.02,0.86,0.28,49.79
1,-0.20,0.98,0.28,49.79
1,-0.23,0.98,0.15,42.26
1,-0.23,0.97,0.10,41.71
1,-0.05,0.84,0.10,42.13
1,0.19,1.31,-0.00,44.48
1,0.19,0.93,0.08,42.08
1,0.07,0.93,0.08,44.04
1,-0.14,0.90,0.27,44.04
1,-0.19,1.07,0.16,40.21
1,-0.25,1.07,0.14,43.71
1,-0.12,0.80,0.14,43.71
1,0.13,1.25,0.03,44.64
1,0.13,1.20,0.03,42.84
1,0.16,1.01,0.03,42.56
1,-0.07,0.85,0.23,45.69
1,-0.07,1.10,0.19,46.96
1,-0.26,1.10,0.19,46.83
1,-0.16,0.80,0.14,46.83
1,-0.16,1.15,0.05,38.94
1,0.09,1.15,0.05,39.57
1,0.21,1.11,-0.01,39.57
1,-0.00,0.85,0.19,49.33
1,-0.00,0.85,0.23,46.23
1,-0.26,1.07,0.23,46.75
1,-0.21,0.88,0.15,44.40
1,-0.21,0.89,0.08,48.50
1,0.03,1.02,0.08,45.35
1,0.20,1.20,-0.04,45.35
1,0.20,0.87,0.14,42.65
1,0.04,0.87,0.13,40.56
1,-0.23,0.99,0.26,40.56
1,-0.22,0.98,0.14,40.66
1,-0.22,0.98,0.12,41.76
1,-0.01,0.91,0.12,41.76
1,0.17,1.26,-0.04,40.95
1,0.17,1.30,0.10,41.85
1,0.09,0.93,0.10,42.03
1,-0.16,0.90,0.26,40.47
1,-0.16,1.06,0.15,41.92
1,-0.23,1.06,0.15,39.78
1,-0.08,0.84,0.13,39.78
1,-0.08,1.24,0.01,44.63
1,0.11,1.24,0.00,45.55
1,0.17,1.02,0.06,45.55
1,-0.10,0.82,0.24,46.48
1,-0.10,0.82,0.17,41.53
1,-0.24,1.09,0.17,41.61
1,-0.14,0.82,0.14,36.13
1,-0.14,0.84,0.02,45.96
1,0.06,1.15,0.02,41.29
1,0.23,1.13,0.02,41.29
1,0.23,0.82,0.18,45.15
1,-0.04,0.82,0.17,45.21
1,-0.25,1.06,0.23,45.21
1,-0.18,0.86,0.16,42.13
1,-0.18,0.86,0.05,45.47
1,0.02,1.03,0.05,45.47
1,0.25,1.22,-0.02,41.65
1,0.25,1.24,0.14,45.75
1,0.01,0.86,0.14,45.93
1,-0.23,1.00,0.28,39.67
1,-0.23,0.94,0.15,39.35
1,-0.22,0.94,0.15,43.79
1,-0.02,0.90,0.09,43.79
1,-0.03,1.29,-0.02,42.95
1,0.22,1.29,0.09,44.78
1,0.05,0.92,0.09,44.78
1,-0.17,0.93,0.27,49.69
1,-0.17,0.90,0.16,48.50
1,-0.23,1.03,0.16,48.80
1,-0.09,0.83,0.12,40.18
1,-0.09,1.27,0.00,45.32
1,0.15,1.27,0.00,46.24
1,0.12,0.98,0.06,46.24
1,0.08,0.88,0.25,48.64
1,-0.11,0.88,0.23,44.68
1,-0.24,1.08,0.16,44.68
1,-0.14,0.80,0.14,43.09
1,-0.14,0.80,0.04,42.39
1,0.11,1.20,0.04,42.39
1,0.18,1.08,0.01,39.44
1,0.18,1.08,0.21,41.73
1,-0.04,0.83,0.21,41.04
1,-0.25,1.09,0.21,41.04
1,-0.25,0.83,0.14,45.39
1,-0.20,0.83,0.13,45.77
1,0.06,1.08,0.07,45.77
1,0.02,1.16,-0.01,49.22
1,0.21,1.16,0.17,41.90
1,0.01,0.85,0.17,41.90
1,-0.24,1.04,0.24,46.97
1,-0.24,1.06,0.15,44.44
1,-0.23,0.93,0.15,44.32
1,0.02,0.97,0.09,45.89
1,0.02,1.23,-0.02,40.48
1,0.18,1.23,-0.02,40.16
1,0.06,0.89,0.12,40.16
1,0.01,0.95,0.26,42.20
1,-0.18,0.95,0.27,43.34
1,-0.24,1.02,0.15,43.34
1,-0.05,0.88,0.12,44.95
1,-0.05,0.88,0.00,44.56
1,0.13,1.25,0.00,44.21
1,0.12,0.95,0.10,43.43
1,0.12,0.94,0.24,43.53
1,-0.13,0.88,0.24,40.66
1,-0.24,1.06,0.15,40.66
1,-0.24,0.84,0.13,42.97
1,-0.09,0.84,0.15,43.56
1,0.09,1.20,0.02,43.56
1,0.12,1.06,0.04,40.60
1,0.19,1.06,0.21,43.81
1,-0.06,0.84,0.21,43.81
1,-0.25,1.07,0.20,47.41
1,-0.25,1.09,0.14,45.08
1,-0.15,0.84,0.14,45.08
1,0.05,1.10,0.04,43.51
1,0.05,1.15,-0.01,49.01
1,0.24,1.15,-0.01,43.11
1,-0.01,0.85,0.18,43.11
1,-0.01,1.03,0.25,44.37
1,-0.26,1.03,0.13,44.70
1,-0.19,0.90,0.13,44.70
1,-0.00,0.97,0.07,41.89
1,-0.00,0.98,-0.02,47.21
1,0.22,1.23,-0.02,47.11
1,0.04,0.90,0.13,41.62
1,0.04,0.96,0.27,39.23
1,-0.21,0.96,0.27,41.70
1,-0.22,0.99,0.14,41.70
1,-0.19,0.88,0.10,41.86
1,-0.06,0.88,0.11,43.06
1,0.17,1.26,-0.01,43.06
1,0.09,0.96,0.09,43.81
1,0.09,0.96,0.26,46.15
1,-0.14,0.92,0.26,46.15
1,-0.21,1.06,0.16,43.66
1,-0.21,1.00,0.14,39.77
1,-0.12,0.82,0.14,45.02
1,0.12,1.22,0.02,45.02
1,0.12,1.03,0.05,43.98
1,0.17,1.03,0.03,47.06
1,-0.08,0.85,0.21,47.06
1,-0.09,1.09,0.19,40.61
1,-0.22,1.09,0.15,46.57
1,-0.17,0.83,0.15,46.57
2,0.02,1.02,0.12,52.40
2,0.20,1.21,-0.01,52.40
2,0.03,0.87,0.13,49.98
2,0.03,0.87,0.25,48.09
2,-0.20,1.00,0.25,48.09
2,-0.24,0.97,0.15,42.06
2,-0.24,0.99,0.11,44.55
2,-0.02,0.93,0.11,42.50
2,0.15,1.25,-0.01,42.50
2,0.15,0.92,0.09,43.10
2,0.07,0.92,0.07,42.98
2,-0.14,0.92,0.25,42.98
2,-0.17,1.05,0.13,43.08
2,-0.23,1.05,0.13,42.63
2,-0.07,0.85,0.13,42.63
2,0.11,1.23,0.02,41.62
2,0.11,1.24,0.06,50.92
2,0.15,0.99,0.06,51.41
2,-0.07,0.86,0.24,42.79
2,-0.07,1.07,0.17,49.20
2,-0.25,1.07,0.17,47.33
2,-0.12,0.84,0.13,47.33
2,-0.11,1.16,0.04,47.87
2,0.08,1.16,0.01,45.35
2,0.20,1.08,0.01,45.35
2,-0.02,0.85,0.20,46.14
2,-0.02,0.85,0.22,41.92
2,-0.25,1.04,0.22,42.03
2,-0.17,0.87,0.14,40.47
2,-0.17,0.86,0.06,40.82
2,0.02,1.05,0.06,42.08
2,0.20,1.17,-0.02,42.08
2,0.20,0.89,0.15,49.52
2,0.04,0.89,0.13,42.93
2,-0.23,0.99,0.25,42.93
2,-0.21,0.94,0.15,42.44
2,-0.21,0.94,0.09,41.16
2,-0.03,0.94,0.09,41.16
2,0.17,1.23,-0.02,46.90
2,0.17,1.24,0.11,42.82
2,0.06,0.93,0.11,42.34
2,-0.17,0.93,0.26,43.13
2,-0.17,1.02,0.15,42.26
2,-0.22,1.02,0.15,44.17
2,-0.08,0.86,0.12,44.17
2,-0.12,1.23,0.00,43.26
2,0.13,1.23,0.02,48.24
2,0.13,1.00,0.08,48.24
2,-0.11,0.88,0.24,40.68
2,-0.11,0.88,0.17,42.12
2,-0.22,1.07,0.17,42.22
2,-0.14,0.82,0.14,43.79
2,-0.14,0.86,0.03,43.42
2,0.09,1.17,0.03,49.32
2,0.19,1.08,0.05,49.32
2,0.19,0.86,0.19,39.55
2,-0.05,0.86,0.20,44.16
2,-0.23,1.07,0.20,44.16
2,-0.19,0.85,0.13,43.07
2,-0.19,0.85,0.05,45.60
2,0.04,1.06,0.05,45.60
2,0.22,1.16,-0.00,45.78
2,0.22,1.18,0.15,45.34
2,-0.00,0.86,0.15,45.14
2,-0.21,1.03,0.24,42.79
2,-0.21,0.92,0.14,45.67
2,-0.21,0.92,0.15,48.30
2,-0.00,0.96,0.08,48.30
2,-0.01,1.23,-0.00,44.12
2,0.18,1.23,0.11,48.94
2,0.04,0.89,0.11,48.94
2,-0.17,0.96,0.26,37.76
2,-0.17,0.94,0.15,44.43
2,-0.24,1.00,0.15,44.32
2,-0.06,0.88,0.11,52.16
2,-0.06,1.25,0.01,45.68
2,0.13,1.25,0.01,47.79
2,0.10,0.95,0.08,47.79
2,0.08,0.90,0.23,50.06
2,-0.10,0.90,0.22,43.41
2,-0.23,1.06,0.16,43.41
2,-0.11,0.84,0.12,43.77
2,-0.11,0.84,0.03,48.01
2,0.09,1.20,0.03,47.98
2,0.16,1.03,0.04,39.37
2,0.16,1.06,0.21,46.69
2,-0.04,0.87,0.21,51.92
2,-0.24,1.05,0.20,51.92
2,-0.24,0.85,0.13,51.55
2,-0.15,0.85,0.18,43.50
2,0.05,1.11,0.05,43.50
2,0.01,1.12,0.01,42.91
2,0.20,1.12,0.18,46.87
2,0.01,0.88,0.18,46.87
2,-0.24,1.02,0.24,43.39
2,-0.24,1.03,0.14,43.51
2,-0.20,0.90,0.14,43.58
2,0.00,1.00,0.09,42.02
2,0.00,1.18,-0.01,46.40
2,0.18,1.18,-0.01,46.39
2,0.05,0.92,0.13,46.39
2,0.05,0.97,0.26,40.29
2,-0.20,0.97,0.28,45.25
2,-0.21,0.98,0.15,45.25
2,-0.04,0.92,0.11,49.77
2,-0.04,0.92,-0.01,41.50
2,0.13,1.21,-0.01,42.11
2,0.11,0.97,0.10,46.81
2,0.11,0.98,0.24,46.25
2,-0.14,0.92,0.24,45.95
2,-0.22,1.04,0.17,45.95
2,-0.22,0.85,0.13,44.55
2,-0.10,0.85,0.14,40.84
2,0.09,1.19,0.01,40.84
2,0.17,1.04,0.07,47.77
2,0.17,1.04,0.21,39.62
2,-0.08,0.88,0.21,39.62
2,-0.22,1.06,0.18,47.25
2,-0.22,1.09,0.15,44.61
2,-0.16,0.84,0.15,45.35
2,0.05,1.10,0.04,46.92
2,0.05,1.12,0.02,40.93
2,0.21,1.12,0.02,44.07
2,-0.02,0.87,0.17,44.07
2,-0.03,1.05,0.22,46.68
2,-0.22,1.05,0.14,42.75
2,-0.19,0.89,0.14,42.75
2,0.01,1.01,0.07,38.05
2,0.01,1.00,0.00,45.05
2,0.20,1.19,0.00,44.86
2,0.03,0.88,0.13,44.08
2,0.03,1.00,0.26,43.35
2,-0.19,1.00,0.26,42.54
2,-0.21,0.97,0.14,42.54
2,-0.22,0.93,0.10,42.81
2,-0.03,0.93,0.07,50.03
2,0.17,1.23,0.01,50.03
2,0.06,0.93,0.10,43.37
2,0.06,0.93,0.25,47.37
2,-0.13,0.94,0.25,47.37
2,-0.21,1.04,0.14,39.53
2,-0.21,1.05,0.11,41.02
2,-0.09,0.86,0.11,43.18
2,0.12,1.23,0.02,43.18
2,0.12,0.99,0.06,41.60
2,0.12,0.99,0.11,47.15
2,-0.07,0.88,0.24,47.15
2,-0.10,1.06,0.16,48.23
2,-0.22,1.06,0.12,41.19
2,-0.13,0.86,0.12,41.19
2,0.08,1.16,0.05,46.47
2,0.08,1.14,0.02,43.06
2,0.17,1.07,0.02,43.69
2,-0.03,0.86,0.21,47.60
2,-0.03,1.04,0.21,44.13
2,-0.23,1.04,0.21,42.45
2,-0.19,0.87,0.13,42.45
2,-0.16,1.06,0.07,43.94
2,0.03,1.06,0.07,41.47
2,0.18,1.15,0.00,41.47
2,0.03,0.89,0.16,45.58
2,0.03,0.89,0.24,40.31
2,-0.21,1.00,0.24,40.11
2,-0.21,0.94,0.15,45.60
2,-0.21,0.90,0.09,44.74
2,-0.01,0.96,0.09,46.26
2,0.15,1.20,-0.01,46.26
2,0.15,0.94,0.12,44.36
2,0.06,0.94,0.06,42.30
2,-0.16,0.95,0.25,42.30
2,-0.21,1.00,0.16,43.85
2,-0.21,1.00,0.12,45.69
2,-0.07,0.89,0.12,45.69
2,0.09,1.20,0.01,44.00
2,0.09,1.25,0.08,44.81
2,0.13,1.00,0.08,44.95
2,-0.10,0.90,0.23,42.60
2,-0.10,1.05,0.18,47.91
2,-0.21,1.05,0.18,42.15
2,-0.12,0.86,0.13,42.15
2,-0.12,1.14,0.03,43.39
2,0.07,1.14,0.04,43.21
2,0.19,1.08,0.04,43.21
2,-0.04,0.88,0.20,42.56
2,-0.04,0.88,0.21,46.03
2,-0.22,1.06,0.21,45.49
2,-0.17,0.87,0.13,42.35
2,-0.17,1.05,0.06,41.52
2,0.01,1.05,0.06,39.89
2,0.21,1.14,0.02,39.89
2,0.20,0.88,0.15,42.21
2,0.01,0.88,0.17,45.65
2,-0.21,1.02,0.23,45.65
2,-0.20,0.93,0.14,44.41
2,-0.20,0.93,0.07,45.60
2,-0.02,0.96,0.07,45.72
2,0.18,1.19,0.01,42.58
2,0.18,1.22,0.12,38.65
2,0.04,0.90,0.12,42.62
2,-0.16,0.96,0.25,42.62
2,-0.16,1.00,0.15,43.00
2,-0.21,1.00,0.17,46.01
2,-0.08,0.89,0.10,46.01
2,-0.12,1.23,0.01,41.24
2,0.13,1.23,0.08,46.30
2,0.09,0.96,0.08,46.30
2,-0.10,0.91,0.24,45.58
2,-0.10,0.92,0.15,45.74
2,-0.21,1.05,0.15,46.03
2,-0.12,0.86,0.12,43.68
2,-0.12,1.19,0.04,39.79
2,0.10,1.19,0.04,41.91
2,0.15,1.04,0.05,41.91
2,0.13,0.87,0.23,43.80
2,-0.06,0.87,0.19,40.42
2,-0.21,1.05,0.19,40.42
2,-0.16,0.86,0.12,38.94
2,-0.16,0.86,0.06,47.93
2,0.05,1.10,0.06,47.75
2,0.18,1.11,0.03,48.53
2,0.18,1.06,0.17,40.62
2,0.00,0.88,0.17,41.93
2,-0.22,1.02,0.23,41.93
2,-0.20,0.90,0.13,42.60
2,-0.20,0.90,0.14,42.34
2,0.01,1.01,0.08,42.34
2,0.16,1.17,0.00,48.45
2,0.16,1.17,0.14,50.09
2,0.05,0.91,0.14,50.09
2,-0.18,0.97,0.25,43.35
2,-0.18,0.96,0.15,40.87
2,-0.22,0.96,0.15,40.70
2,-0.04,0.93,0.10,43.05
3,0.07,1.18,0.02,40.06
3,0.15,1.02,0.07,40.84
3,0.15,1.02,0.21,41.46
3,-0.07,0.90,0.21,36.49
3,-0.23,1.05,0.19,36.49
3,-0.23,0.87,0.13,43.26
3,-0.14,0.87,0.17,45.96
3,0.03,1.12,0.04,45.96
3,0.01,1.09,0.02,39.63
3,0.19,1.09,0.17,39.52
3,-0.00,0.89,0.17,39.52
3,-0.22,1.04,0.22,43.03
3,-0.22,1.02,0.14,42.95
3,-0.18,0.90,0.14,42.35
3,-0.01,1.02,0.06,43.92
3,-0.01,1.16,0.00,43.34
3,0.18,1.16,0.00,42.86
3,0.03,0.91,0.14,42.86
3,0.06,1.00,0.24,41.65
3,-0.19,1.00,0.21,42.98
3,-0.20,0.97,0.14,42.98
3,-0.04,0.94,0.09,48.54
3,-0.04,0.94,-0.00,40.80
3,0.15,1.20,-0.00,41.37
3,0.08,0.93,0.10,42.16
3,0.08,0.94,0.23,44.50
3,-0.14,0.94,0.23,44.65
3,-0.20,1.04,0.15,44.65
3,-0.22,0.89,0.11,45.08
3,-0.10,0.89,0.08,43.28
3,0.10,1.20,0.02,43.28
3,0.11,0.99,0.08,45.38
3,0.11,0.99,0.22,39.20
3,-0.09,0.89,0.22,39.20
3,-0.20,1.05,0.18,41.90
3,-0.20,1.06,0.12,44.24
3,-0.15,0.87,0.12,44.43
3,0.08,1.15,0.04,45.22
3,0.08,1.08,0.04,49.84
3,0.17,1.08,0.04,37.96
3,-0.03,0.86,0.19,37.96
3,-0.02,1.04,0.21,40.91
3,-0.20,1.04,0.20,46.01
3,-0.18,0.88,0.13,46.01
3,0.03,1.06,0.05,44.00
3,0.03,1.02,0.02,46.58
3,0.18,1.14,0.02,46.83
3,0.03,0.89,0.15,40.56
3,0.03,1.00,0.23,44.72
3,-0.18,1.00,0.23,45.15
3,-0.21,0.94,0.14,45.15
3,-0.20,0.96,0.08,43.72
3,-0.02,0.96,0.07,49.24
3,0.14,1.19,0.01,49.24
3,0.06,0.92,0.11,44.98
3,0.06,0.92,0.25,43.49
3,-0.14,0.96,0.25,43.52
3,-0.23,1.00,0.15,49.78
3,-0.23,0.96,0.12,52.57
3,-0.06,0.90,0.12,44.85
3,0.10,1.20,0.02,44.85
3,0.10,0.98,0.08,40.03
3,0.11,0.98,0.11,40.37
3,-0.09,0.92,0.24,40.37
3,-0.10,1.03,0.17,39.82
3,-0.22,1.03,0.12,41.13
3,-0.11,0.86,0.12,41.13
3,0.06,1.16,0.03,36.67
3,0.06,1.17,0.04,45.89
3,0.16,1.05,0.04,45.58
3,-0.03,0.90,0.20,47.93
3,-0.03,1.04,0.20,38.90
3,-0.22,1.04,0.20,43.04
3,-0.16,0.88,0.13,43.04
3,-0.16,1.08,0.07,36.60
3,0.03,1.08,0.07,40.84
3,0.18,1.12,0.01,40.84
3,0.02,0.90,0.17,45.40
3,0.02,0.90,0.22,41.41
3,-0.21,1.02,0.22,41.14
3,-0.19,0.93,0.14,39.57
3,-0.19,0.91,0.08,40.82
3,-0.02,0.97,0.08,40.00
3,0.16,1.16,0.01,40.00
3,0.16,0.92,0.14,43.12
3,0.06,0.92,0.17,45.42
3,-0.16,0.96,0.24,45.42
3,-0.19,1.00,0.15,46.00
3,-0.19,1.00,0.11,42.51
3,-0.06,0.92,0.11,42.51
3,0.12,1.19,0.01,43.78
3,0.12,1.22,0.11,48.18
3,0.10,0.97,0.11,48.44
3,-0.11,0.92,0.23,46.87
3,-0.11,1.04,0.16,42.98
3,-0.20,1.04,0.16,44.39
3,-0.11,0.88,0.11,44.39
3,-0.12,1.16,0.04,48.43
3,0.07,1.16,0.00,43.93
3,0.15,1.04,0.06,43.93
3,-0.05,0.88,0.21,38.38
3,-0.05,0.92,0.19,42.93
3,-0.19,1.04,0.19,42.46
3,-0.16,0.87,0.13,44.03
3,-0.16,1.10,0.06,45.30
3,0.04,1.10,0.06,46.06
3,0.17,1.10,0.03,46.06
3,0.13,0.88,0.17,55.17
3,0.00,0.88,0.16,42.89
3,-0.20,1.03,0.22,42.89
3,-0.19,0.91,0.14,43.75
3,-0.19,0.91,0.07,42.95
3,-0.00,1.00,0.07,42.42
3,0.17,1.18,0.02,45.56
3,0.17,1.16,0.14,43.67
3,0.04,0.91,0.14,40.24
3,-0.16,0.98,0.24,40.24
3,-0.16,0.97,0.16,46.68
3,-0.21,0.97,0.17,49.62
3,-0.05,0.92,0.11,49.62
3,-0.06,1.20,0.02,45.33
3,0.13,1.20,0.10,49.84
3,0.08,0.95,0.10,49.84
3,-0.11,0.94,0.25,45.99
3,-0.11,0.95,0.16,50.66
3,-0.22,1.02,0.16,50.61
3,-0.10,0.88,0.12,42.78
3,-0.10,1.18,0.03,43.23
3,0.08,1.18,0.03,44.59
3,0.13,1.01,0.05,44.59
3,0.14,0.90,0.22,40.25
3,-0.05,0.90,0.24,42.47
3,-0.21,1.04,0.17,42.47
3,-0.14,0.87,0.12,41.13
3,-0.14,0.87,0.05,41.96
3,0.05,1.12,0.05,42.03
3,0.17,1.07,0.04,47.52
3,0.17,1.09,0.18,45.67
3,0.00,0.90,0.18,38.58
3,-0.22,1.04,0.21,38.58
3,-0.22,0.90,0.13,49.32
3,-0.17,0.90,0.13,46.03
3,0.01,1.04,0.07,46.03
3,0.17,1.13,0.01,35.55
3,0.17,1.13,0.15,44.12
3,0.04,0.91,0.15,44.12
3,-0.19,0.99,0.24,46.12
3,-0.19,0.96,0.14,42.58
3,-0.19,0.96,0.14,42.90
3,-0.04,0.95,0.09,39.76
3,-0.04,1.17,0.01,41.34
3,0.12,1.17,0.01,39.12
3,0.08,0.94,0.12,39.12
3,0.11,0.94,0.25,42.58
3,-0.14,0.94,0.21,40.59
3,-0.21,1.01,0.15,40.59
3,-0.08,0.91,0.12,43.77
3,-0.08,0.93,0.02,46.22
3,0.08,1.18,0.02,46.64
3,0.12,1.00,0.08,45.86
3,0.12,0.90,0.21,39.92
3,-0.08,0.90,0.21,41.01
3,-0.20,1.04,0.18,41.01
3,-0.19,0.88,0.13,45.56
3,-0.13,0.88,0.17,46.91
3,0.05,1.13,0.04,46.91
3,0.18,1.08,0.05,52.21
3,0.18,1.08,0.19,44.77
3,-0.03,0.88,0.19,44.77
3,-0.19,1.04,0.20,38.09
3,-0.19,1.03,0.12,48.79
3,-0.17,0.90,0.12,42.99
3,0.01,1.04,0.05,42.99
3,0.01,1.14,0.03,43.93
3,0.18,1.14,0.02,48.77
3,0.01,0.89,0.15,48.77
3,0.01,1.00,0.23,43.63
3,-0.18,1.00,0.14,48.24
3,-0.19,0.94,0.14,48.24
3,-0.03,0.97,0.08,40.47
3,-0.03,0.99,0.02,40.80
3,0.14,1.18,0.02,40.67
3,0.04,0.93,0.11,46.94
3,0.04,0.95,0.23,48.64
3,-0.14,0.95,0.23,40.04
3,-0.20,0.99,0.16,40.04
3,-0.21,0.90,0.11,47.91
3,-0.08,0.90,0.09,48.41
3,0.10,1.20,0.03,48.41
3,0.09,0.98,0.09,42.67
3,0.09,0.98,0.23,36.42
3,-0.09,0.92,0.23,36.45
3,-0.20,1.02,0.17,43.50
3,-0.20,1.06,0.11,40.32
3,-0.12,0.87,0.11,42.95
3,0.07,1.16,0.05,42.95
3,0.07,1.04,0.05,40.06
3,0.14,1.04,0.00,39.43
3,-0.02,0.91,0.19,39.43
3,-0.21,1.04,0.20,47.37
3,-0.21,1.04,0.13,42.29
3,-0.17,0.89,0.13,42.29
3,0.03,1.08,0.07,42.63
3,0.03,1.11,0.03,37.34
3,0.16,1.11,0.03,37.31
3,0.02,0.91,0.17,47.50
3,0.02,1.01,0.22,45.86
3,-0.19,1.01,0.22,43.21
3,-0.19,0.93,0.15,43.21
3,-0.20,1.00,0.08,40.88
3,-0.01,1.00,0.07,49.78
3,0.14,1.15,0.01,49.78
3,0.05,0.93,0.14,44.98
3,0.05,0.91,0.22,46.51
3,-0.15,0.98,0.22,46.30
3,-0.20,0.98,0.14,47.08
3,-0.20,0.93,0.12,42.85
3,-0.06,0.93,0.12,40.13
3,0.10,1.18,0.02,40.13
3,0.10,0.97,0.10,44.33
3,0.10,0.97,0.10,41.17
3,-0.10,0.93,0.23,41.17
3,-0.20,1.03,0.15,44.31
3,-0.20,1.03,0.11,42.19
3,-0.10,0.90,0.11,42.19
3,0.06,1.14,0.04,39.30
3,0.06,1.16,0.07,44.64
3,0.15,1.03,0.07,42.19
3,-0.06,0.90,0.20,42.19
3,-0.06,1.04,0.18,44.96
3,-0.20,1.04,0.18,51.25
3,-0.14,0.90,0.12,51.25
3,-0.16,1.09,0.05,41.77
4,0.16,1.15,0.02,42.30
4,0.16,0.91,0.15,47.59
4,0.03,0.91,0.17,47.22
4,-0.16,0.98,0.23,47.22
4,-0.14,0.97,0.15,40.02
4,-0.20,0.97,0.10,53.28
4,-0.05,0.94,0.10,53.28
4,0.12,1.19,0.02,44.00
4,0.12,1.20,0.10,42.98
4,0.08,0.95,0.10,42.87
4,-0.13,0.94,0.23,38.17
4,-0.13,1.02,0.15,44.05
4,-0.20,1.02,0.15,41.00
4,-0.10,0.89,0.11,41.00
4,-0.10,1.17,0.04,46.82
4,0.09,1.17,0.01,43.36
4,0.12,1.01,0.07,43.36
4,-0.06,0.91,0.22,41.13
4,-0.06,0.91,0.19,38.84
4,-0.20,1.04,0.19,38.49
4,-0.14,0.88,0.12,43.19
4,-0.14,0.88,0.05,38.47
4,0.06,1.13,0.05,42.82
4,0.15,1.07,0.04,42.82
4,0.18,0.90,0.18,48.51
4,-0.01,0.90,0.15,41.62
4,-0.19,1.03,0.21,41.62
4,-0.18,0.91,0.13,43.80
4,-0.18,0.91,0.07,38.59
4,0.02,1.03,0.07,38.59
4,0.15,1.12,0.02,44.54
4,0.15,1.10,0.15,46.74
4,0.03,0.91,0.15,46.74
4,-0.16,0.99,0.22,49.09
4,-0.16,0.96,0.14,48.45
4,-0.20,0.96,0.14,43.86
4,-0.03,0.97,0.10,43.86
4,-0.00,1.17,0.02,42.03
4,0.12,1.17,0.11,41.13
4,0.07,0.94,0.11,41.13
4,-0.12,0.95,0.23,42.78
4,-0.12,0.94,0.14,54.85
4,-0.20,1.00,0.14,54.88
4,-0.09,0.92,0.11,47.05
4,-0.09,1.16,0.03,44.25
4,0.08,1.16,0.03,44.42
4,0.11,0.99,0.09,44.42
4,0.12,0.91,0.21,43.78
4,-0.07,0.91,0.22,44.31
4,-0.20,1.03,0.15,44.31
4,-0.12,0.90,0.12,43.15
4,-0.12,0.90,0.05,48.95
4,0.04,1.12,0.05,48.95
4,0.15,1.06,0.05,41.90
4,0.15,1.03,0.19,44.91
4,-0.02,0.90,0.19,47.12
4,-0.19,1.03,0.20,47.12
4,-0.19,0.91,0.12,46.25
4,-0.16,0.91,0.12,41.08
4,0.00,1.06,0.06,41.08
4,0.04,1.11,0.02,37.97
4,0.16,1.11,0.15,40.37
4,0.03,0.92,0.15,40.37
4,-0.18,1.00,0.22,39.87
4,-0.18,1.01,0.14,38.45
4,-0.18,0.94,0.14,38.50
4,-0.04,0.98,0.08,46.34
4,-0.04,1.15,0.03,39.31
4,0.14,1.15,0.03,40.00
4,0.05,0.95,0.13,40.00
4,0.05,0.95,0.23,38.86
4,-0.14,0.95,0.21,46.70
4,-0.19,0.99,0.15,46.70
4,-0.08,0.92,0.11,43.01
4,-0.08,0.92,0.03,41.47
4,0.10,1.17,0.03,41.47
4,0.10,0.98,0.10,45.39
4,0.10,0.99,0.23,48.93
4,-0.09,0.92,0.23,45.52
4,-0.19,1.02,0.17,45.52
4,-0.19,0.89,0.12,54.60
4,-0.13,0.89,0.10,41.13
4,0.06,1.14,0.04,41.13
4,0.14,1.04,0.06,41.29
4,0.14,1.04,0.19,45.32
4,-0.04,0.90,0.19,45.32
4,-0.19,1.03,0.19,45.86
4,-0.19,1.03,0.12,51.51
4,-0.16,0.90,0.12,51.34
4,0.02,1.07,0.05,46.64
4,0.02,1.10,0.04,42.41
4,0.16,1.10,0.04,47.52
4,0.00,0.91,0.17,47.52
4,0.01,1.01,0.21,35.64
4,-0.18,1.01,0.14,44.33
4,-0.19,0.93,0.14,44.33
4,-0.02,1.00,0.08,41.44
4,-0.02,1.02,0.03,46.81
4,0.14,1.14,0.03,46.41
4,0.05,0.93,0.13,46.41
4,0.05,0.98,0.23,54.27
4,-0.13,0.98,0.23,39.66
4,-0.21,0.98,0.13,39.66
4,-0.25,0.94,0.11,42.97
4,-0.06,0.94,0.09,41.72
4,0.09,1.17,0.03,41.72
4,0.09,0.96,0.09,41.55
4,0.09,0.96,0.21,40.43
4,-0.09,0.93,0.21,40.53
4,-0.20,1.01,0.17,45.23
4,-0.20,1.03,0.12,43.17
4,-0.09,0.91,0.12,43.96
4,0.06,1.14,0.05,43.96
4,0.06,1.01,0.06,46.44
4,0.13,1.01,0.08,47.39
4,-0.04,0.91,0.21,47.39
4,-0.01,1.03,0.19,43.36
4,-0.20,1.03,0.12,41.12
4,-0.13,0.91,0.12,41.12
4,0.02,1.09,0.05,42.31
4,0.02,1.08,0.04,44.30
4,0.15,1.08,0.04,44.19
4,0.01,0.91,0.18,48.10
4,0.01,1.01,0.22,42.88
4,-0.19,1.01,0.22,44.02
4,-0.16,0.92,0.14,44.02
4,-0.15,1.02,0.07,49.30
4,-0.02,1.02,0.09,49.94
4,0.14,1.12,0.02,49.94
4,0.05,0.93,0.15,46.30
4,0.05,0.93,0.22,40.08
4,-0.16,0.98,0.22,40.65
4,-0.18,0.97,0.15,43.78
4,-0.18,0.96,0.10,45.54
4,-0.05,0.96,0.10,45.66
4,0.11,1.15,0.02,45.66
4,0.11,0.96,0.12,41.71
4,0.08,0.96,0.10,42.00
4,-0.12,0.94,0.23,42.00
4,-0.19,1.00,0.15,46.89
4,-0.19,1.00,0.11,41.41
4,-0.10,0.91,0.11,41.41
4,0.07,1.15,0.03,47.91
4,0.07,1.14,0.08,48.99
4,0.12,1.02,0.08,48.76
4,-0.07,0.91,0.21,47.98
4,-0.07,1.03,0.17,39.09
4,-0.18,1.03,0.18,45.96
4,-0.13,0.90,0.12,45.96
4,-0.14,1.10,0.06,45.37
4,0.05,1.10,0.06,38.82
4,0.15,1.07,0.06,38.82
4,-0.02,0.92,0.17,40.90
4,-0.02,0.89,0.20,43.49
4,-0.17,1.02,0.20,43.02
4,-0.17,0.91,0.13,44.59
4,-0.17,1.03,0.07,41.71
4,-0.00,1.03,0.07,42.91
4,0.15,1.11,0.04,42.91
4,0.15,0.92,0.15,47.33
4,0.03,0.92,0.16,40.44
4,-0.15,1.00,0.22,40.44
4,-0.19,0.96,0.14,42.21
4,-0.19,0.96,0.09,45.00
4,-0.05,0.98,0.09,45.00
4,0.12,1.15,0.04,42.23
4,0.12,1.14,0.11,42.20
4,0.06,0.95,0.11,47.45
4,-0.11,0.96,0.23,47.45
4,-0.11,1.00,0.14,40.43
4,-0.20,1.00,0.17,48.07
4,-0.07,0.93,0.11,48.07
4,-0.10,1.16,0.04,47.39
4,0.09,1.16,0.08,48.04
4,0.09,0.99,0.08,48.04
4,-0.06,0.93,0.22,50.49
4,-0.06,0.90,0.17,44.52
4,-0.20,1.02,0.17,43.84
4,-0.11,0.90,0.12,46.19
4,-0.11,1.12,0.05,47.60
4,0.05,1.12,0.05,49.10
4,0.13,1.04,0.06,49.10
4,0.17,0.91,0.19,43.33
4,-0.02,0.91,0.19,40.57
4,-0.18,1.02,0.19,40.57
4,-0.16,0.91,0.12,43.29
4,-0.16,0.91,0.07,41.17
4,0.01,1.05,0.07,41.09
4,0.14,1.09,0.04,44.22
4,0.14,1.12,0.17,41.87
4,0.02,0.93,0.17,43.81
4,-0.17,1.00,0.22,43.81
4,-0.17,0.93,0.14,40.16
4,-0.18,0.93,0.15,41.04
4,-0.03,0.99,0.09,41.04
4,0.12,1.13,0.02,46.41
4,0.12,1.13,0.13,49.63
4,0.06,0.95,0.13,49.63
4,-0.13,0.96,0.23,43.27
4,-0.13,0.98,0.13,45.07
4,-0.19,0.98,0.13,45.02
4,-0.07,0.94,0.11,40.32
4,-0.07,1.15,0.03,43.99
4,0.09,1.15,0.03,46.29
4,0.10,0.99,0.10,46.29
4,0.10,0.93,0.22,40.23
4,-0.09,0.93,0.17,41.78
4,-0.19,1.02,0.17,41.78
4,-0.11,0.90,0.11,43.70
4,-0.11,0.94,0.05,36.53
4,0.05,1.12,0.05,36.11
4,0.14,1.04,0.06,44.73
4,0.14,0.91,0.19,40.83
4,-0.04,0.91,0.19,42.93
4,-0.19,1.03,0.20,42.93
4,-0.14,0.91,0.13,43.02
4,-0.14,0.91,0.18,47.08
4,0.01,1.07,0.06,47.08
4,0.15,1.09,0.04,50.28
4,0.15,1.09,0.15,44.38
4,0.00,0.92,0.15,44.38
4,-0.17,1.01,0.21,40.50
4,-0.17,1.06,0.15,41.45
4,-0.18,0.93,0.15,42.19
4,-0.03,1.00,0.07,42.19
4,-0.03,1.13,0.03,49.14
4,0.13,1.13,0.00,45.13
4,0.04,0.93,0.13,45.13
4,0.05,0.97,0.23,41.44
4,-0.13,0.97,0.15,46.44
4,-0.18,0.98,0.15,46.44
4,-0.07,0.95,0.11,40.05
4,-0.07,0.97,0.03,38.70
5,0.12,1.02,0.07,45.15
5,0.12,1.02,0.20,46.49
5,-0.04,0.92,0.20,46.49
5,-0.18,1.03,0.17,42.15
5,-0.18,1.02,0.11,48.87
5,-0.14,0.90,0.11,48.73
5,0.03,1.10,0.06,37.76
5,0.03,1.06,0.04,42.00
5,0.13,1.06,0.04,47.22
5,0.01,0.91,0.18,47.22
5,0.01,1.01,0.19,53.85
5,-0.18,1.01,0.20,40.89
5,-0.17,0.92,0.14,40.89
5,-0.01,1.03,0.07,48.09
5,-0.01,1.05,0.04,42.47
5,0.12,1.11,0.04,42.71
5,0.04,0.94,0.14,49.76
5,0.04,0.98,0.23,46.81
5,-0.15,0.98,0.23,44.83
5,-0.19,0.97,0.15,44.83
5,-0.17,0.98,0.09,43.86
5,-0.05,0.98,0.09,48.38
5,0.09,1.14,0.02,48.38
5,0.08,0.97,0.11,44.14
5,0.08,0.97,0.22,42.93
5,-0.10,0.95,0.22,42.66
5,-0.19,0.99,0.16,45.01
5,-0.19,0.99,0.10,47.37
5,-0.08,0.93,0.10,49.32
5,0.06,1.13,0.05,49.32
5,0.06,1.01,0.08,47.65
5,0.11,1.01,0.08,42.87
5,-0.06,0.93,0.20,42.87
5,-0.06,1.02,0.17,44.64
5,-0.19,1.02,0.10,46.41
5,-0.12,0.92,0.10,46.41
5,0.03,1.10,0.05,45.37
5,0.03,1.12,0.05,39.92
5,0.14,1.05,0.05,40.30
5,-0.01,0.92,0.17,41.08
5,-0.01,1.01,0.20,46.71
5,-0.18,1.01,0.20,42.64
5,-0.16,0.92,0.14,42.64
5,-0.14,1.03,0.06,44.68
5,-0.01,1.03,0.04,46.70
5,0.15,1.12,0.04,46.70
5,0.03,0.94,0.14,41.87
5,0.03,0.94,0.22,42.53
5,-0.15,0.99,0.22,42.92
5,-0.17,0.95,0.13,44.48
5,-0.17,0.98,0.08,40.53
5,-0.06,0.98,0.08,46.57
5,0.12,1.14,0.02,46.57
5,0.12,0.95,0.12,42.32
5,0.06,0.95,0.10,41.76
5,-0.11,0.96,0.22,41.76
5,-0.19,0.99,0.15,49.59
5,-0.19,0.99,0.11,41.43
5,-0.10,0.93,0.11,41.43
5,0.08,1.14,0.04,46.27
5,0.08,1.18,0.09,46.32
5,0.10,0.99,0.09,46.51
5,-0.06,0.93,0.21,44.16
5,-0.06,1.03,0.16,50.17
5,-0.18,1.03,0.16,38.83
5,-0.13,0.91,0.11,38.83
5,-0.08,1.12,0.06,46.27
5,0.05,1.12,0.06,45.60
5,0.13,1.03,0.06,45.60
5,-0.01,0.91,0.18,40.22
5,-0.01,0.89,0.19,42.57
5,-0.17,1.02,0.19,42.94
5,-0.15,0.91,0.13,42.94
5,-0.15,1.07,0.06,44.93
5,0.01,1.07,0.06,40.19
5,0.13,1.08,0.04,40.19
5,0.15,0.93,0.16,40.41
5,0.03,0.93,0.15,46.18
5,-0.16,0.99,0.21,46.18
5,-0.18,0.94,0.14,43.68
5,-0.18,0.94,0.08,46.02
5,-0.03,1.01,0.08,45.51
5,0.09,1.12,0.04,45.51
5,0.09,1.07,0.12,42.14
5,0.06,0.95,0.12,42.48
5,-0.13,0.97,0.22,42.48
5,-0.13,0.98,0.14,41.17
5,-0.19,0.98,0.16,41.07
5,-0.07,0.95,0.10,41.07
5,-0.12,1.13,0.04,42.92
5,0.07,1.13,0.10,46.33
5,0.09,0.98,0.10,46.33
5,-0.08,0.94,0.21,44.07
5,-0.08,0.94,0.17,43.56
5,-0.20,1.00,0.17,43.36
5,-0.10,0.92,0.11,40.23
5,-0.10,1.12,0.05,43.27
5,0.05,1.12,0.05,45.26
5,0.12,1.02,0.07,45.26
5,0.10,0.92,0.19,43.66
5,-0.03,0.92,0.25,42.71
5,-0.19,1.02,0.19,42.71
5,-0.13,0.92,0.11,42.06
5,-0.13,0.92,0.05,40.34
5,0.01,1.07,0.05,40.55
5,0.14,1.07,0.06,46.03
5,0.14,0.93,0.17,44.01
5,0.01,0.93,0.17,43.12
5,-0.18,0.99,0.20,43.12
5,-0.17,0.94,0.13,43.57
5,-0.17,0.94,0.15,44.85
5,-0.03,1.01,0.08,44.85
5,0.12,1.11,0.02,48.08
5,0.12,1.11,0.13,44.17
5,0.04,0.95,0.13,43.96
5,-0.13,0.97,0.21,42.39
5,-0.13,0.98,0.14,45.00
5,-0.18,0.98,0.14,42.79
5,-0.08,0.95,0.10,42.79
5,-0.08,1.14,0.04,44.34
5,0.09,1.14,0.04,42.09
5,0.09,0.98,0.10,42.09
5,0.10,0.94,0.22,41.63
5,-0.09,0.94,0.17,47.67
5,-0.18,1.01,0.17,47.67
5,-0.11,0.92,0.11,42.00
5,-0.11,0.94,0.04,50.63
5,0.06,1.12,0.04,50.17
5,0.11,1.02,0.08,42.34
5,0.11,0.92,0.19,41.87
5,-0.05,0.92,0.19,42.95
5,-0.17,1.01,0.18,42.95
5,-0.14,0.92,0.10,46.93
5,-0.14,0.92,0.12,40.91
5,0.02,1.09,0.06,40.91
5,0.13,1.06,0.05,43.39
5,0.13,1.06,0.17,39.87
5,-0.00,0.92,0.17,39.84
5,-0.17,1.01,0.21,46.10
5,-0.17,1.00,0.13,45.93
5,-0.17,0.94,0.13,47.06
5,-0.02,1.04,0.07,47.06
5,-0.00,1.11,0.05,44.83
5,0.12,1.11,0.02,38.48
5,0.05,0.94,0.14,38.48
5,-0.14,0.98,0.22,46.03
5,-0.14,0.98,0.13,40.12
5,-0.19,0.96,0.13,40.12
5,-0.05,0.98,0.09,47.48
5,-0.05,0.94,0.03,44.48
5,0.09,1.13,0.03,44.29
5,0.07,0.97,0.11,41.94
5,0.07,0.96,0.21,44.31
5,-0.09,0.96,0.21,43.13
5,-0.19,0.99,0.16,43.13
5,-0.21,0.94,0.11,44.30
5,-0.08,0.94,0.04,45.00
5,0.07,1.13,0.04,45.00
5,0.10,1.00,0.09,43.26
5,0.10,1.06,0.20,41.49
5,-0.05,0.93,0.20,42.14
5,-0.18,1.01,0.17,38.23
5,-0.18,0.92,0.11,41.58
5,-0.12,0.92,0.11,49.80
5,0.02,1.10,0.06,49.80
5,0.01,1.04,0.06,37.00
5,0.14,1.04,0.05,48.74
5,-0.00,0.93,0.17,48.74
5,-0.18,1.00,0.20,48.06
5,-0.18,1.00,0.13,45.67
5,-0.15,0.94,0.13,45.86
5,-0.01,1.04,0.07,40.38
5,-0.01,1.03,0.04,53.43
5,0.13,1.09,0.04,48.41
5,0.03,0.95,0.15,48.41
5,0.03,0.99,0.21,41.16
5,-0.16,0.99,0.20,47.91
5,-0.18,0.96,0.14,47.91
5,-0.17,0.99,0.09,42.34
5,-0.05,0.99,0.04,46.33
5,0.11,1.11,0.04,46.33
5,0.06,0.96,0.13,46.33
5,0.06,0.96,0.21,47.21
5,-0.12,0.96,0.21,47.43
5,-0.17,0.99,0.16,44.30
5,-0.17,0.95,0.11,45.13
5,-0.08,0.95,0.11,46.10
5,0.07,1.13,0.03,46.10
5,0.09,1.00,0.10,42.50
5,0.09,1.00,0.08,42.62
5,-0.07,0.94,0.21,42.62
5,-0.17,1.01,0.16,41.16
5,-0.17,1.01,0.11,45.42
5,-0.11,0.92,0.11,45.47
5,0.04,1.10,0.04,45.47
5,0.04,1.10,0.08,45.82
5,0.12,1.03,0.08,42.60
5,-0.02,0.93,0.18,42.60
5,-0.02,1.02,0.18,35.11
5,-0.17,1.02,0.13,44.56
5,-0.14,0.93,0.13,44.56
5,0.00,1.05,0.07,40.84
5,0.00,1.05,0.06,46.51
5,0.14,1.08,0.06,46.51
5,0.02,0.93,0.16,42.12
5,0.02,0.93,0.20,40.49
5,-0.15,0.99,0.20,40.43
5,-0.18,0.94,0.13,53.75
5,-0.18,1.01,0.08,50.40
5,-0.03,1.01,0.08,48.45
5,0.11,1.11,0.03,48.45
5,0.11,0.95,0.13,48.12
5,0.04,0.95,0.16,45.75
5,-0.12,0.98,0.22,45.75
5,-0.19,0.97,0.14,43.40
5,-0.19,0.96,0.10,45.74
5,-0.07,0.96,0.10,45.93
5,0.07,1.14,0.05,44.36
5,0.07,0.99,0.10,45.71
5,0.08,0.99,0.10,48.41
5,-0.07,0.94,0.22,48.41
5,-0.12,1.00,0.16,48.42
5,-0.19,1.00,0.17,41.88
5,-0.11,0.92,0.11,41.88
5,0.05,1.12,0.04,48.43
5,0.05,1.12,0.08,51.14
5,0.11,1.02,0.08,51.63
5,-0.02,0.93,0.19,50.06
5,-0.02,0.89,0.18,47.62
5,-0.18,1.01,0.18,41.47
5,-0.13,0.92,0.12,41.47
5,-0.13,1.08,0.05,49.48
5,0.01,1.08,0.05,41.55
6,0.10,0.96,0.16,43.93
6,0.04,0.96,0.16,44.23
6,-0.13,0.98,0.21,44.23
6,-0.18,0.97,0.14,45.06
6,-0.18,0.97,0.15,49.98
6,-0.06,0.98,0.09,49.98
6,0.07,1.12,0.04,51.03
6,0.07,1.12,0.11,38.82
6,0.09,0.97,0.11,38.59
6,-0.09,0.95,0.21,39.38
6,-0.09,1.00,0.15,46.47
6,-0.18,1.00,0.15,47.81
6,-0.09,0.94,0.10,47.81
6,-0.09,1.11,0.05,41.70
6,0.05,1.11,0.03,45.20
6,0.11,1.01,0.09,45.20
6,0.08,0.93,0.19,47.52
6,-0.05,0.93,0.17,37.74
6,-0.18,1.01,0.17,37.74
6,-0.13,0.93,0.12,39.51
6,-0.13,0.89,0.05,40.32
6,0.02,1.08,0.05,40.09
6,0.13,1.06,0.07,44.79
6,0.13,0.93,0.17,45.16
6,0.00,0.93,0.17,45.76
6,-0.16,1.01,0.20,45.76
6,-0.16,0.93,0.13,51.75
6,-0.16,0.93,0.13,51.61
6,-0.02,1.03,0.07,51.61
6,0.12,1.10,0.05,44.71
6,0.12,1.10,0.14,43.15
6,0.03,0.95,0.14,43.78
6,-0.13,0.98,0.22,40.64
6,-0.13,0.97,0.14,49.20
6,-0.18,0.97,0.14,42.40
6,-0.06,0.98,0.09,42.40
6,-0.03,1.13,0.05,41.39
6,0.09,1.13,0.05,45.00
6,0.07,0.97,0.11,45.00
6,-0.10,0.96,0.22,41.85
6,-0.10,0.96,0.15,44.57
6,-0.18,0.99,0.15,44.57
6,-0.09,0.95,0.10,45.05
6,-0.09,1.00,0.06,46.18
6,0.06,1.12,0.06,44.69
6,0.09,1.00,0.09,44.69
6,0.09,0.94,0.20,42.82
6,-0.05,0.94,0.22,42.41
6,-0.17,1.01,0.16,42.41
6,-0.13,0.93,0.12,44.57
6,-0.13,0.93,0.06,35.41
6,0.03,1.10,0.06,35.41
6,0.11,1.04,0.07,43.31
6,0.11,1.00,0.17,44.85
6,-0.01,0.94,0.17,44.62
6,-0.16,1.01,0.19,45.41
6,-0.16,0.92,0.13,41.48
6,-0.15,0.92,0.13,45.20
6,-0.00,1.06,0.07,45.20
6,-0.02,1.08,0.05,45.86
6,0.10,1.08,0.04,43.45
6,0.03,0.95,0.17,43.45
6,-0.14,0.98,0.20,46.65
6,-0.14,0.98,0.13,44.62
6,-0.17,0.96,0.13,44.84
6,-0.04,1.01,0.10,44.06
6,-0.04,1.04,0.04,48.41
6,0.08,1.11,0.04,44.31
6,0.06,0.97,0.12,44.31
6,0.06,0.96,0.21,44.87
6,-0.11,0.96,0.21,52.59
6,-0.19,0.98,0.14,52.59
6,-0.07,0.96,0.11,45.52
6,-0.07,0.96,0.05,42.18
6,0.06,1.12,0.05,42.18
6,0.09,0.99,0.10,51.55
6,0.09,0.94,0.21,40.06
6,-0.06,0.94,0.21,40.58
6,-0.18,1.00,0.15,39.01
6,-0.18,0.93,0.11,42.07
6,-0.10,0.93,0.11,43.54
6,0.03,1.09,0.05,43.54
6,0.05,1.03,0.07,43.58
6,0.12,1.03,0.12,42.59
6,-0.02,0.94,0.18,42.59
6,-0.16,1.00,0.18,48.00
6,-0.16,1.00,0.13,47.49
6,-0.13,0.94,0.13,46.96
6,-0.01,1.05,0.06,43.83
6,-0.01,1.07,0.05,42.16
6,0.12,1.07,0.05,42.36
6,0.01,0.94,0.17,42.36
6,0.03,0.98,0.20,43.11
6,-0.15,0.98,0.20,44.67
6,-0.17,0.95,0.13,44.67
6,-0.04,1.01,0.08,45.45
6,-0.04,1.01,0.05,35.32
6,0.10,1.10,0.05,35.24
6,0.06,0.96,0.13,40.73
6,0.06,0.97,0.21,39.12
6,-0.11,0.97,0.21,43.51
6,-0.18,0.98,0.13,43.51
6,-0.18,0.96,0.11,39.28
6,-0.08,0.96,0.11,44.28
6,0.08,1.12,0.05,44.28
6,0.09,0.99,0.10,41.62
6,0.09,0.99,0.20,41.05
6,-0.08,0.94,0.20,41.05
6,-0.18,1.00,0.16,44.65
6,-0.18,0.99,0.10,47.01
6,-0.11,0.93,0.10,47.05
6,0.03,1.11,0.05,47.05
6,0.03,1.02,0.08,40.54
6,0.10,1.02,0.08,41.04
6,-0.03,0.93,0.20,41.04
6,-0.04,1.01,0.18,37.91
6,-0.17,1.01,0.18,48.25
6,-0.14,0.92,0.12,48.25
6,0.01,1.07,0.07,45.13
6,0.01,1.07,0.06,44.20
6,0.12,1.06,0.06,43.89
6,0.00,0.94,0.17,39.19
6,0.00,0.94,0.20,42.24
6,-0.16,1.00,0.20,43.04
6,-0.17,0.93,0.13,43.04
6,-0.17,1.03,0.08,50.49
6,-0.02,1.03,0.12,39.48
6,0.10,1.09,0.06,39.48
6,0.11,0.95,0.14,49.37
6,0.05,0.95,0.21,40.29
6,-0.13,0.97,0.21,40.29
6,-0.18,0.97,0.14,47.67
6,-0.18,0.98,0.10,49.49
6,-0.06,0.98,0.10,49.94
6,0.07,1.11,0.05,43.68
6,0.07,0.97,0.11,48.29
6,0.07,0.97,0.11,43.12
6,-0.08,0.95,0.21,43.12
6,-0.11,0.99,0.14,43.52
6,-0.17,0.99,0.17,44.47
6,-0.09,0.95,0.10,44.47
6,0.04,1.11,0.04,41.35
6,0.04,1.11,0.09,44.18
6,0.10,1.01,0.09,44.27
6,-0.04,0.94,0.19,48.19
6,-0.04,1.01,0.17,37.75
6,-0.17,1.01,0.17,40.50
6,-0.12,0.93,0.12,40.50
6,-0.12,1.08,0.06,38.56
6,0.00,1.08,0.01,48.68
6,0.12,1.05,0.07,48.68
6,-0.00,0.94,0.17,37.76
6,-0.00,0.94,0.19,41.06
6,-0.16,1.00,0.19,41.06
6,-0.15,0.94,0.13,41.81
6,-0.15,0.98,0.06,53.90
6,-0.03,1.04,0.06,45.84
6,0.11,1.08,0.05,45.84
6,0.11,0.96,0.15,42.55
6,0.03,0.96,0.15,42.45
6,-0.14,0.97,0.21,42.45
6,-0.17,0.97,0.13,41.06
6,-0.17,0.97,0.09,38.29
6,-0.07,0.99,0.09,38.29
6,0.08,1.11,0.04,47.29
6,0.08,1.10,0.11,42.66
6,0.07,0.98,0.11,42.66
6,-0.09,0.96,0.21,40.31
6,-0.09,0.99,0.15,50.64
6,-0.17,0.99,0.15,45.66
6,-0.09,0.95,0.10,45.66
6,-0.06,1.11,0.04,50.91
6,0.06,1.11,0.03,39.91
6,0.09,1.00,0.09,39.91
6,-0.05,0.94,0.19,35.98
6,-0.05,0.94,0.16,39.65
6,-0.17,1.01,0.16,39.48
6,-0.12,0.94,0.11,42.61
6,-0.12,0.91,0.05,39.18
6,0.02,1.10,0.05,48.74
6,0.10,1.04,0.08,48.74
6,0.10,0.94,0.18,37.75
6,-0.00,0.94,0.13,53.15
6,-0.16,1.01,0.19,53.15
6,-0.15,0.94,0.12,39.77
6,-0.15,0.94,0.06,41.60
6,-0.00,1.05,0.06,41.60
6,0.11,1.08,0.06,48.93
6,0.11,1.07,0.15,47.94
6,0.03,0.95,0.15,48.12
6,-0.13,1.00,0.20,39.51
6,-0.13,0.95,0.14,42.38
6,-0.17,0.95,0.14,47.37
6,-0.04,1.00,0.07,47.37
6,-0.03,1.10,0.06,60.57
6,0.09,1.10,0.00,38.95
6,0.05,0.97,0.13,38.95
6,-0.10,0.97,0.21,38.93
6,-0.10,0.97,0.14,41.73
6,-0.18,0.97,0.14,42.03
6,-0.08,0.97,0.09,50.65
6,-0.08,0.99,0.05,51.94
6,0.07,1.11,0.05,42.89
6,0.08,0.99,0.09,42.89
6,0.08,0.96,0.20,41.78
6,-0.05,0.96,0.23,46.66
6,-0.18,1.00,0.16,46.66
6,-0.10,0.93,0.11,47.97
6,-0.10,0.93,0.06,41.43
6,0.02,1.10,0.06,41.43
6,0.11,1.02,0.09,40.27
6,0.11,1.06,0.18,42.50
6,-0.02,0.93,0.18,44.61
6,-0.17,1.00,0.18,44.61
6,-0.17,0.94,0.12,42.16
6,-0.14,0.94,0.06,39.31
6,-0.00,1.07,0.06,39.31
6,-0.01,1.05,0.06,44.33
6,0.11,1.05,0.16,41.80
6,0.02,0.96,0.16,41.80
6,-0.15,0.99,0.20,45.49
6,-0.15,0.95,0.13,43.77
6,-0.16,0.95,0.13,43.47
6,-0.04,1.01,0.07,37.98
6,-0.04,1.09,0.05,42.63
6,0.10,1.09,0.05,43.68
6,0.05,0.97,0.13,43.68
6,0.01,0.97,0.20,48.04
6,-0.12,0.97,0.20,47.67
6,-0.17,0.98,0.13,47.67
6,-0.07,0.98,0.10,54.60
6,-0.07,0.98,0.04,45.07
6,0.06,1.11,0.04,44.79
7,0.10,1.02,0.19,44.51
7,-0.03,0.94,0.19,44.38
7,-0.15,1.01,0.17,42.82
7,-0.15,1.06,0.12,46.97
7,-0.13,0.94,0.12,42.41
7,0.00,1.07,0.06,42.41
7,0.00,1.06,0.06,46.24
7,0.11,1.06,0.11,39.86
7,0.00,0.94,0.17,39.86
7,0.04,1.00,0.20,45.56
7,-0.15,1.00,0.12,39.90
7,-0.16,0.95,0.12,39.90
7,-0.03,1.02,0.07,41.85
7,-0.03,1.02,0.06,41.85
7,0.10,1.08,0.06,41.62
7,0.04,0.96,0.15,40.05
7,0.04,0.98,0.20,39.95
7,-0.12,0.98,0.20,53.43
7,-0.17,0.97,0.14,53.43
7,-0.14,0.97,0.09,47.68
7,-0.08,0.97,0.12,40.16
7,0.07,1.10,0.06,40.16
7,0.06,0.97,0.11,43.39
7,0.06,0.97,0.21,41.82
7,-0.08,0.95,0.21,41.55
7,-0.17,1.00,0.14,43.12
7,-0.17,0.95,0.10,41.58
7,-0.10,0.95,0.10,39.94
7,0.05,1.12,0.05,39.94
7,0.05,1.00,0.09,43.45
7,0.10,1.00,0.07,43.25
7,-0.04,0.95,0.19,43.25
7,-0.16,1.00,0.17,44.41
7,-0.16,1.00,0.11,44.29
7,-0.12,0.94,0.11,44.29
7,0.02,1.09,0.06,50.97
7,0.02,1.10,0.07,43.48
7,0.10,1.04,0.07,43.62
7,0.01,0.95,0.17,42.83
7,0.01,1.00,0.20,42.71
7,-0.15,1.00,0.20,51.53
7,-0.15,0.94,0.12,51.53
7,-0.15,1.04,0.06,43.79
7,-0.02,1.04,0.06,47.39
7,0.10,1.07,0.06,47.39
7,0.04,0.97,0.15,40.74
7,0.04,0.98,0.20,45.26
7,-0.13,0.98,0.20,44.71
7,-0.17,0.96,0.14,43.93
7,-0.17,1.00,0.09,46.30
7,-0.06,1.00,0.09,40.49
7,0.08,1.09,0.05,40.49
7,0.12,0.97,0.12,43.07
7,0.06,0.97,0.09,44.97
7,-0.09,0.96,0.21,44.97
7,-0.17,0.98,0.14,45.01
7,-0.17,0.98,0.11,42.83
7,-0.09,0.97,0.11,42.24
7,0.05,1.09,0.05,41.46
7,0.05,1.07,0.10,48.69
7,0.10,1.00,0.10,43.86
7,-0.06,0.95,0.19,43.86
7,-0.06,1.01,0.17,45.12
7,-0.17,1.01,0.18,44.99
7,-0.11,0.94,0.12,44.99
7,-0.11,1.10,0.05,41.27
7,0.02,1.10,0.09,44.64
7,0.11,1.03,0.09,44.64
7,-0.02,0.94,0.18,47.26
7,-0.02,1.00,0.19,45.87
7,-0.15,1.00,0.19,45.69
7,-0.14,0.94,0.11,48.04
7,-0.14,1.04,0.07,40.88
7,-0.02,1.04,0.07,43.03
7,0.12,1.08,0.07,43.03
7,0.08,0.95,0.15,44.87
7,0.02,0.95,0.13,41.38
7,-0.13,0.99,0.19,41.38
7,-0.17,0.96,0.14,41.45
7,-0.17,0.96,0.08,47.18
7,-0.06,1.00,0.08,47.27
7,0.09,1.10,0.05,44.13
7,0.09,1.09,0.12,44.86
7,0.05,0.97,0.12,46.04
7,-0.09,0.98,0.20,46.04
7,-0.09,0.98,0.14,43.42
7,-0.17,0.98,0.16,39.36
7,-0.09,0.96,0.10,39.36
7,0.05,1.10,0.05,43.83
7,0.05,1.10,0.10,42.55
7,0.08,0.99,0.10,42.55
7,-0.06,0.95,0.21,46.76
7,-0.06,1.00,0.16,46.22
7,-0.17,1.00,0.16,46.44
7,-0.10,0.95,0.10,47.23
7,-0.10,1.10,0.05,46.38
7,0.03,1.10,0.05,40.55
7,0.09,1.02,0.09,40.55
7,0.11,0.94,0.19,47.93
7,-0.01,0.94,0.18,42.15
7,-0.15,1.00,0.18,42.15
7,-0.14,0.93,0.13,46.88
7,-0.14,0.88,0.07,43.28
7,0.00,1.07,0.07,43.60
7,0.10,1.05,0.07,49.87
7,0.10,0.95,0.16,48.72
7,0.02,0.95,0.16,44.08
7,-0.13,0.99,0.19,44.08
7,-0.16,0.95,0.13,47.61
7,-0.16,0.95,0.14,44.05
7,-0.03,1.02,0.08,44.05
7,0.08,1.08,0.05,44.62
7,0.08,1.08,0.15,42.71
7,0.05,0.97,0.15,42.71
7,-0.11,0.97,0.22,43.44
7,-0.11,0.98,0.13,45.67
7,-0.17,0.98,0.13,46.90
7,-0.07,0.99,0.10,46.90
7,-0.07,1.10,0.05,47.42
7,0.06,1.10,0.04,45.09
7,0.07,0.99,0.11,45.09
7,0.12,0.96,0.20,45.39
7,-0.07,0.96,0.15,52.31
7,-0.17,0.99,0.15,52.31
7,-0.10,0.95,0.11,44.34
7,-0.10,0.97,0.05,42.74
7,0.03,1.10,0.05,42.26
7,0.10,1.01,0.09,42.26
7,0.10,0.94,0.19,42.71
7,-0.04,0.94,0.19,47.12
7,-0.16,1.00,0.17,47.12
7,-0.18,0.94,0.11,43.02
7,-0.12,0.94,0.12,41.92
7,-0.00,1.07,0.06,41.92
7,0.10,1.05,0.08,46.06
7,0.10,1.05,0.16,43.71
7,0.00,0.96,0.16,43.09
7,-0.14,1.00,0.19,43.87
7,-0.14,0.94,0.12,44.07
7,-0.15,0.94,0.12,42.70
7,-0.03,1.03,0.06,42.70
7,-0.03,1.07,0.06,43.94
7,0.10,1.07,0.02,43.36
7,0.04,0.96,0.14,43.36
7,-0.11,0.98,0.21,48.10
7,-0.11,0.98,0.14,44.87
7,-0.16,0.97,0.14,44.87
7,-0.07,0.99,0.09,43.67
7,-0.07,0.97,0.06,46.24
7,0.07,1.09,0.06,46.46
7,0.07,0.98,0.12,43.33
7,0.07,0.96,0.20,48.66
7,-0.08,0.96,0.20,41.74
7,-0.16,0.99,0.16,41.74
7,-0.16,0.96,0.10,42.01
7,-0.10,0.96,0.06,41.77
7,0.04,1.09,0.06,41.77
7,0.09,1.01,0.10,45.84
7,0.09,1.01,0.19,41.62
7,-0.04,0.94,0.19,41.73
7,-0.15,1.00,0.16,45.65
7,-0.15,0.94,0.11,42.29
7,-0.12,0.94,0.11,44.66
7,0.00,1.08,0.05,44.66
7,0.04,1.03,0.08,42.63
7,0.11,1.03,0.11,38.29
7,0.00,0.95,0.18,38.29
7,-0.14,1.00,0.18,44.33
7,-0.14,1.00,0.11,48.38
7,-0.15,0.94,0.11,47.73
7,-0.02,1.04,0.07,39.12
7,-0.02,1.06,0.06,40.43
7,0.09,1.06,0.06,39.59
7,0.02,0.96,0.16,39.59
7,0.02,0.98,0.20,42.38
7,-0.12,0.98,0.19,45.85
7,-0.17,0.96,0.13,45.85
7,-0.18,1.01,0.08,46.10
7,-0.06,1.01,0.06,42.15
7,0.08,1.09,0.06,42.15
7,0.06,0.97,0.13,39.63
7,0.06,0.97,0.20,41.20
7,-0.08,0.97,0.20,41.18
7,-0.17,0.98,0.14,36.48
7,-0.17,0.97,0.10,49.06
7,-0.09,0.97,0.10,48.17
7,0.04,1.10,0.05,48.17
7,0.02,1.00,0.10,42.85
7,0.08,1.00,0.06,41.09
7,-0.05,0.96,0.19,41.09
7,-0.16,1.00,0.16,41.66
7,-0.16,1.00,0.10,44.23
7,-0.11,0.95,0.10,43.90
7,0.02,1.08,0.06,46.25
7,0.02,1.09,0.08,43.10
7,0.10,1.02,0.08,41.63
7,-0.01,0.95,0.18,41.63
7,-0.01,1.00,0.18,43.74
7,-0.15,1.00,0.18,48.84
7,-0.13,0.95,0.12,48.84
7,-0.14,1.05,0.06,50.03
7,-0.02,1.05,0.07,45.63
7,0.10,1.06,0.07,45.63
7,0.03,0.96,0.16,46.56
7,0.03,0.98,0.20,44.16
7,-0.14,0.98,0.20,44.15
7,-0.15,0.96,0.13,45.72
7,-0.15,1.01,0.09,47.47
7,-0.05,1.01,0.12,43.38
7,0.09,1.08,0.06,43.38
7,0.06,0.98,0.14,47.44
7,0.06,0.98,0.21,40.35
7,-0.09,0.97,0.21,40.35
7,-0.15,0.98,0.15,42.36
7,-0.15,0.97,0.10,44.05
7,-0.08,0.97,0.10,44.31
7,0.05,1.09,0.06,45.88
7,0.05,0.99,0.11,44.39
7,0.08,0.99,0.11,42.80
7,-0.07,0.95,0.20,42.80
7,-0.10,1.00,0.14,45.05
7,-0.16,1.00,0.16,46.76
7,-0.12,0.96,0.10,46.76
7,0.02,1.09,0.06,43.19
7,0.02,1.09,0.09,47.06
7,0.10,1.03,0.09,47.06
7,-0.02,0.95,0.18,38.88
7,-0.02,0.94,0.17,39.76
7,-0.15,1.00,0.17,45.81
7,-0.13,0.95,0.11,45.81
7,-0.13,1.06,0.06,41.69
7,-0.01,1.06,0.07,42.35
7,0.10,1.05,0.07,42.35
8,0.04,0.96,0.14,47.49
8,-0.09,0.98,0.20,47.49
8,-0.10,0.98,0.14,42.04
8,-0.16,0.98,0.16,43.44
8,-0.07,0.98,0.10,43.44
8,0.07,1.10,0.06,47.28
8,0.07,1.10,0.11,51.49
8,0.07,0.98,0.11,51.46
8,-0.06,0.97,0.18,40.49
8,-0.06,0.99,0.15,50.55
8,-0.16,0.99,0.15,39.02
8,-0.10,0.96,0.11,39.02
8,-0.09,1.10,0.06,42.32
8,0.03,1.10,0.09,48.82
8,0.09,1.01,0.09,48.82
8,-0.04,0.95,0.19,42.05
8,-0.04,0.95,0.18,51.22
8,-0.15,1.00,0.18,51.22
8,-0.12,0.95,0.11,48.36
8,-0.12,0.95,0.06,50.89
8,0.00,1.07,0.06,51.07
8,0.10,1.03,0.07,47.94
8,0.10,0.96,0.16,42.29
8,0.02,0.96,0.13,42.23
8,-0.14,0.99,0.19,42.23
8,-0.14,0.96,0.12,47.06
8,-0.14,0.96,0.07,41.96
8,-0.03,1.03,0.07,41.96
8,0.09,1.06,0.06,38.19
8,0.09,1.04,0.13,40.15
8,0.04,0.98,0.13,40.32
8,-0.12,0.98,0.20,45.80
8,-0.12,0.97,0.14,49.96
8,-0.16,0.97,0.14,44.04
8,-0.07,0.99,0.10,44.04
8,-0.12,1.08,0.06,44.52
8,0.06,1.08,0.05,44.48
8,0.07,0.98,0.12,44.48
8,-0.07,0.96,0.19,46.82
8,-0.07,0.96,0.14,45.59
8,-0.16,1.00,0.14,45.63
8,-0.10,0.97,0.11,45.63
8,-0.10,0.97,0.05,47.14
8,0.03,1.09,0.05,45.58
8,0.08,1.00,0.11,45.58
8,0.08,0.95,0.18,44.66
8,-0.04,0.95,0.16,48.48
8,-0.15,1.00,0.16,48.48
8,-0.18,0.95,0.10,41.97
8,-0.12,0.95,0.05,41.18
8,0.00,1.08,0.05,41.18
8,0.10,1.03,0.08,40.04
8,0.10,1.02,0.17,42.67
8,-0.00,0.95,0.17,42.38
8,-0.14,1.00,0.18,39.25
8,-0.14,0.95,0.12,41.98
8,-0.14,0.95,0.12,40.32
8,-0.03,1.05,0.07,40.32
8,-0.02,1.06,0.06,41.02
8,0.11,1.06,0.09,39.02
8,0.03,0.96,0.15,39.02
8,-0.12,0.99,0.20,44.31
8,-0.12,0.99,0.13,46.64
8,-0.16,0.96,0.13,46.61
8,-0.07,1.00,0.09,41.91
8,-0.07,1.08,0.06,45.70
8,0.07,1.08,0.06,44.98
8,0.05,0.97,0.13,44.98
8,0.04,0.96,0.20,45.85
8,-0.09,0.96,0.20,48.24
8,-0.16,0.98,0.14,48.24
8,-0.09,0.97,0.10,41.18
8,-0.09,0.97,0.06,39.42
8,0.05,1.09,0.06,39.42
8,0.07,0.99,0.11,42.39
8,0.07,0.95,0.19,44.91
8,-0.05,0.95,0.19,45.28
8,-0.15,1.00,0.16,42.14
8,-0.15,0.95,0.11,49.03
8,-0.11,0.95,0.11,43.89
8,0.02,1.08,0.06,43.89
8,0.03,1.02,0.10,42.77
8,0.09,1.02,0.18,39.41
8,-0.00,0.96,0.18,39.41
8,-0.15,0.99,0.18,42.77
8,-0.15,0.94,0.11,38.77
8,-0.14,0.94,0.11,38.90
8,-0.02,1.05,0.07,47.51
8,-0.02,1.05,0.06,44.05
8,0.09,1.05,0.06,47.31
8,0.03,0.97,0.16,47.31
8,0.00,0.99,0.19,44.48
8,-0.12,0.99,0.13,45.41
8,-0.15,0.96,0.13,45.41
8,-0.04,1.02,0.08,47.10
8,-0.04,1.02,0.06,46.14
8,0.07,1.07,0.06,45.63
8,0.05,0.97,0.13,42.50
8,0.05,0.97,0.19,43.27
8,-0.09,0.97,0.19,44.85
8,-0.16,0.98,0.14,44.85
8,-0.16,0.99,0.09,38.99
8,-0.08,0.99,0.12,42.97
8,0.05,1.08,0.06,42.97
8,0.02,0.99,0.11,46.07
8,0.08,0.99,0.20,41.41
8,-0.06,0.95,0.20,41.41
8,-0.16,0.99,0.15,45.67
8,-0.16,0.96,0.11,40.03
8,-0.10,0.96,0.11,40.45
8,0.02,1.08,0.06,39.67
8,0.02,1.02,0.09,46.80
8,0.10,1.02,0.09,44.25
8,-0.03,0.95,0.18,44.25
8,-0.03,0.99,0.16,43.94
8,-0.15,0.99,0.18,41.82
8,-0.12,0.95,0.12,41.82
8,-0.01,1.05,0.06,41.81
8,-0.01,1.05,0.08,42.00
8,0.10,1.04,0.08,42.09
8,0.01,0.96,0.17,49.14
8,0.01,0.98,0.19,48.15
8,-0.13,0.98,0.19,43.33
8,-0.15,0.96,0.13,43.33
8,-0.17,1.03,0.08,42.34
8,-0.05,1.03,0.06,45.75
8,0.09,1.07,0.06,45.75
8,0.05,0.97,0.14,48.16
8,0.05,0.97,0.19,48.70
8,-0.10,0.98,0.19,48.70
8,-0.17,0.97,0.14,39.51
8,-0.17,0.99,0.09,47.58
8,-0.08,0.99,0.09,46.96
8,0.06,1.09,0.06,42.26
8,0.06,0.99,0.12,41.52
8,0.06,0.99,0.12,41.15
8,-0.07,0.96,0.20,41.15
8,-0.09,0.99,0.15,46.00
8,-0.16,0.99,0.10,45.06
8,-0.10,0.96,0.10,45.06
8,0.04,1.09,0.06,46.14
8,0.04,1.07,0.10,49.15
8,0.07,1.01,0.10,48.75
8,-0.03,0.94,0.18,44.84
8,-0.03,1.00,0.17,38.85
8,-0.15,1.00,0.17,41.01
8,-0.12,0.95,0.10,41.01
8,-0.06,1.08,0.07,42.02
8,-0.00,1.08,0.08,47.18
8,0.10,1.03,0.08,47.18
8,0.00,0.96,0.18,44.42
8,0.00,0.96,0.19,40.21
8,-0.13,0.99,0.19,40.43
8,-0.15,0.95,0.13,40.43
8,-0.15,0.98,0.07,44.24
8,-0.03,1.04,0.07,44.54
8,0.09,1.06,0.07,44.54
8,0.09,0.97,0.15,44.51
8,0.04,0.97,0.13,50.74
8,-0.11,0.98,0.19,50.74
8,-0.10,0.97,0.12,39.67
8,-0.16,0.97,0.09,44.46
8,-0.06,1.00,0.09,44.46
8,0.06,1.08,0.06,45.92
8,0.06,1.10,0.12,45.04
8,0.06,0.98,0.12,44.98
8,-0.07,0.97,0.19,46.55
8,-0.07,0.99,0.15,45.78
8,-0.16,0.99,0.15,45.85
8,-0.09,0.97,0.10,45.85
8,-0.09,1.08,0.06,48.76
8,0.04,1.08,0.04,42.87
8,0.09,1.00,0.10,42.87
8,-0.04,0.95,0.19,45.37
8,-0.04,0.95,0.16,42.65
8,-0.16,0.99,0.16,42.29
8,-0.11,0.95,0.11,39.94
8,-0.11,0.95,0.06,41.77
8,0.00,1.07,0.06,42.77
8,0.09,1.04,0.09,42.77
8,0.09,0.95,0.18,48.43
8,-0.00,0.95,0.18,44.65
8,-0.15,0.99,0.18,44.65
8,-0.13,0.96,0.11,46.59
8,-0.13,0.96,0.07,42.70
8,-0.03,1.05,0.07,42.70
8,0.09,1.05,0.07,45.12
8,0.09,1.02,0.14,43.18
8,0.03,0.96,0.14,43.75
8,-0.12,0.99,0.19,42.19
8,-0.12,0.97,0.13,45.23
8,-0.15,0.97,0.13,45.43
8,-0.07,1.01,0.08,45.43
8,-0.11,1.07,0.06,51.04
8,0.08,1.07,0.13,41.17
8,0.06,0.99,0.13,41.17
8,-0.09,0.97,0.19,46.69
8,-0.09,0.98,0.14,42.47
8,-0.16,0.98,0.14,42.54
8,-0.09,0.97,0.09,41.75
8,-0.09,1.08,0.06,41.30
8,0.04,1.08,0.06,43.04
8,0.08,1.00,0.11,43.04
8,0.08,0.96,0.19,43.15
8,-0.05,0.96,0.22,43.02
8,-0.16,0.99,0.16,43.02
8,-0.11,0.96,0.11,45.54
8,-0.11,0.96,0.06,40.43
8,0.01,1.08,0.06,40.14
8,0.08,1.01,0.09,44.06
8,0.08,1.02,0.18,45.80
8,-0.01,0.96,0.18,43.34
8,-0.14,1.00,0.17,43.34
8,-0.14,0.95,0.12,44.56
8,-0.14,0.95,0.07,47.50
8,-0.02,1.05,0.07,47.50
8,-0.03,1.04,0.08,40.08
8,0.09,1.04,0.17,45.47
8,0.02,0.97,0.17,45.47
8,-0.11,0.99,0.19,43.16
8,-0.11,0.96,0.13,43.27
8,-0.15,0.96,0.13,43.14
8,-0.06,1.01,0.09,49.41
8,-0.06,1.07,0.06,39.98
8,0.07,1.07,0.06,42.34
8,0.05,0.98,0.13,42.34
8,0.04,0.97,0.20,42.00
8,-0.08,0.97,0.20,44.57
8,-0.16,0.97,0.14,44.57
8,-0.07,0.99,0.09,43.15
8,-0.07,0.99,0.06,47.98
8,0.04,1.08,0.06,47.80
8,0.07,1.00,0.11,42.32
9,-0.02,0.95,0.18,41.23
9,-0.15,0.99,0.16,44.93
9,-0.15,0.96,0.10,45.42
9,-0.12,0.96,0.10,45.46
9,-0.02,1.06,0.07,45.46
9,-0.02,1.04,0.08,41.80
9,0.09,1.04,0.11,42.74
9,0.01,0.96,0.17,42.74
9,0.06,0.99,0.19,41.67
9,-0.13,0.99,0.11,45.80
9,-0.14,0.95,0.11,45.80
9,-0.04,1.02,0.07,44.23
9,-0.04,1.06,0.07,47.77
9,0.09,1.06,0.07,47.97
9,0.04,0.98,0.14,44.05
9,0.04,0.98,0.19,42.66
9,-0.09,0.98,0.19,38.08
9,-0.17,0.97,0.15,38.08
9,-0.14,0.99,0.09,42.48
9,-0.07,0.99,0.07,41.49
9,0.05,1.08,0.07,41.49
9,0.06,0.99,0.12,45.85
9,0.06,0.97,0.19,50.45
9,-0.07,0.97,0.19,50.11
9,-0.15,0.98,0.14,49.32
9,-0.15,0.97,0.10,50.70
9,-0.09,0.97,0.10,42.55
9,0.02,1.08,0.07,42.55
9,0.02,1.01,0.11,47.50
9,0.08,1.01,0.11,44.97
9,-0.04,0.95,0.18,44.97
9,-0.14,1.00,0.16,39.55
9,-0.14,1.00,0.11,42.92
9,-0.13,0.95,0.11,42.92
9,-0.01,1.07,0.06,43.02
9,-0.01,1.10,0.08,36.18
9,0.10,1.04,0.08,37.88
9,0.00,0.96,0.17,37.88
9,0.00,1.00,0.18,51.06
9,-0.13,1.00,0.19,51.09
9,-0.14,0.96,0.12,51.09
9,-0.16,1.03,0.05,38.17
9,-0.04,1.03,0.08,44.05
9,0.08,1.05,0.08,44.05
9,0.04,0.97,0.14,43.30
9,0.04,0.98,0.20,48.45
9,-0.10,0.98,0.20,47.72
9,-0.16,0.97,0.13,43.02
9,-0.16,1.00,0.08,51.45
9,-0.07,1.00,0.08,48.61
9,0.06,1.07,0.07,48.61
9,0.05,0.99,0.13,46.84
9,0.05,0.99,0.14,47.67
9,-0.06,0.97,0.20,47.67
9,-0.16,0.98,0.14,41.27
9,-0.16,0.98,0.09,45.32
9,-0.09,0.98,0.09,45.05
9,0.03,1.08,0.06,48.18
9,0.03,1.12,0.11,50.63
9,0.07,0.99,0.11,43.28
9,-0.04,0.97,0.17,43.28
9,-0.04,0.99,0.16,42.72
9,-0.14,0.99,0.17,46.51
9,-0.11,0.95,0.11,46.51
9,0.01,1.07,0.07,44.67
9,0.01,1.07,0.09,40.30
9,0.08,1.02,0.09,40.30
9,-0.00,0.96,0.17,42.72
9,-0.00,1.00,0.17,47.89
9,-0.14,1.00,0.17,47.76
9,-0.13,0.96,0.12,39.14
9,-0.13,1.04,0.08,41.60
9,-0.02,1.04,0.08,39.23
9,0.09,1.04,0.07,39.23
9,0.09,0.98,0.15,40.86
9,0.03,0.98,0.19,45.47
9,-0.12,0.98,0.19,45.47
9,-0.15,0.96,0.12,43.88
9,-0.15,0.94,0.08,39.68
9,-0.06,1.00,0.08,39.63
9,0.07,1.06,0.07,45.11
9,0.07,0.97,0.14,41.85
9,0.05,0.97,0.14,46.01
9,-0.08,0.97,0.20,46.01
9,-0.09,0.98,0.14,45.72
9,-0.15,0.98,0.16,43.80
9,-0.08,0.98,0.10,43.80
9,0.04,1.08,0.06,44.34
9,0.04,1.08,0.12,40.46
9,0.07,1.00,0.12,40.46
9,-0.05,0.97,0.19,42.08
9,-0.05,0.99,0.15,42.74
9,-0.15,0.99,0.15,44.75
9,-0.11,0.96,0.11,44.75
9,-0.11,1.08,0.07,44.88
9,0.01,1.08,0.09,46.82
9,0.08,1.03,0.09,46.82
9,0.11,0.95,0.18,41.68
9,-0.01,0.95,0.16,45.00
9,-0.14,0.99,0.16,45.00
9,-0.12,0.95,0.12,43.22
9,-0.12,0.98,0.07,41.29
9,-0.02,1.04,0.07,41.16
9,0.09,1.05,0.08,44.29
9,0.09,0.96,0.16,50.02
9,0.02,0.96,0.16,44.63
9,-0.11,0.99,0.19,44.63
9,-0.09,0.97,0.12,42.11
9,-0.15,0.97,0.08,38.23
9,-0.05,1.02,0.08,38.23
9,0.07,1.06,0.06,45.69
9,0.07,1.06,0.14,41.88
9,0.05,0.97,0.14,41.96
9,-0.09,0.98,0.19,38.04
9,-0.09,0.97,0.13,38.72
9,-0.15,0.97,0.13,45.78
9,-0.08,0.99,0.09,45.78
9,-0.08,1.09,0.07,49.64
9,0.04,1.09,0.06,46.58
9,0.06,0.99,0.13,46.58
9,-0.06,0.96,0.19,41.97
9,-0.06,0.96,0.15,45.61
9,-0.15,0.99,0.15,45.61
9,-0.10,0.97,0.10,49.36
9,-0.10,0.95,0.06,45.06
9,0.02,1.07,0.06,45.10
9,0.07,1.01,0.10,41.97
9,0.07,0.96,0.18,40.68
9,-0.02,0.96,0.18,44.54
9,-0.13,1.00,0.17,44.54
9,-0.18,0.96,0.10,44.89
9,-0.12,0.96,0.07,43.23
9,-0.01,1.06,0.07,43.23
9,0.08,1.04,0.09,37.96
9,0.08,1.04,0.17,44.23
9,0.01,0.97,0.17,44.04
9,-0.13,0.99,0.18,42.47
9,-0.13,0.96,0.12,45.35
9,-0.14,0.96,0.12,42.78
9,-0.05,1.03,0.08,42.78
9,-0.05,1.05,0.07,39.69
9,0.08,1.05,0.08,45.73
9,0.05,0.98,0.14,45.73
9,-0.10,0.98,0.19,47.45
9,-0.10,0.98,0.13,43.51
9,-0.16,0.97,0.13,43.72
9,-0.07,1.00,0.08,43.72
9,-0.07,1.01,0.06,42.50
9,0.05,1.07,0.06,40.90
9,0.06,0.98,0.12,40.90
9,0.06,0.98,0.18,41.19
9,-0.06,0.98,0.14,40.39
9,-0.15,0.99,0.14,40.39
9,-0.16,0.97,0.10,36.43
9,-0.10,0.97,0.06,39.32
9,0.02,1.08,0.06,39.32
9,0.08,1.00,0.11,47.40
9,0.08,1.02,0.18,44.48
9,-0.03,0.96,0.18,44.24
9,-0.14,1.00,0.15,41.10
9,-0.14,0.97,0.11,40.29
9,-0.11,0.97,0.11,42.32
9,-0.01,1.06,0.07,42.32
9,-0.04,1.03,0.09,46.04
9,0.08,1.03,0.11,45.41
9,0.00,0.96,0.17,45.41
9,-0.13,0.99,0.17,42.59
9,-0.13,0.99,0.13,39.05
9,-0.13,0.97,0.13,38.62
9,-0.04,1.04,0.07,45.67
9,-0.04,1.05,0.08,51.90
9,0.08,1.05,0.08,43.02
9,0.04,0.97,0.15,43.02
9,0.04,0.98,0.18,44.65
9,-0.10,0.98,0.13,47.04
9,-0.15,0.97,0.13,47.04
9,-0.08,1.00,0.08,52.96
9,-0.08,1.00,0.08,42.38
9,0.05,1.07,0.08,42.38
9,0.06,0.99,0.12,39.57
9,0.06,0.96,0.19,41.74
9,-0.07,0.96,0.19,41.92
9,-0.15,1.00,0.14,47.41
9,-0.15,0.97,0.10,44.21
9,-0.09,0.97,0.10,45.76
9,0.02,1.07,0.07,45.76
9,0.01,1.00,0.10,47.65
9,0.08,1.00,0.19,51.70
9,-0.04,0.96,0.19,51.70
9,-0.14,0.99,0.15,50.87
9,-0.14,0.97,0.10,42.86
9,-0.12,0.97,0.10,42.59
9,-0.00,1.06,0.06,41.81
9,-0.00,1.03,0.10,42.51
9,0.09,1.03,0.10,44.79
9,-0.00,0.97,0.18,44.79
9,-0.01,1.00,0.17,45.26
9,-0.14,1.00,0.18,46.94
9,-0.13,0.96,0.12,46.94
9,-0.03,1.04,0.07,39.30
9,-0.03,1.04,0.09,44.56
9,0.08,1.05,0.09,43.90
9,0.02,0.97,0.17,46.25
9,0.02,0.99,0.19,46.34
9,-0.11,0.99,0.19,48.20
9,-0.14,0.96,0.12,48.20
9,-0.14,1.01,0.07,42.36
9,-0.06,1.01,0.06,44.80
9,0.07,1.06,0.06,44.80
9,0.11,0.99,0.14,42.53
9,0.05,0.99,0.19,45.95
9,-0.07,0.98,0.19,45.95
9,-0.16,0.97,0.14,45.58
9,-0.16,0.98,0.09,41.26
9,-0.08,0.98,0.09,40.86
9,0.04,1.07,0.06,46.34
9,0.04,0.99,0.13,44.59
9,0.06,0.99,0.13,45.47
9,-0.05,0.96,0.19,45.47
9,-0.02,0.99,0.15,43.32
9,-0.14,0.99,0.16,41.04
9,-0.10,0.97,0.10,41.04
9,0.00,1.07,0.07,43.32
9,0.00,1.07,0.09,45.67
9,0.07,1.02,0.09,45.40
9,-0.01,0.96,0.17,46.18
9,-0.01,0.99,0.17,42.92
9,-0.13,0.99,0.17,45.07
9,-0.12,0.96,0.11,45.07
9,-0.12,1.05,0.06,49.20
9,-0.03,1.05,0.02,39.67
9,0.09,1.03,0.08,39.67
9,0.03,0.96,0.17,42.31
10,-0.08,0.97,0.19,41.12
10,-0.12,0.99,0.18,42.79
10,-0.14,0.96,0.12,39.27
10,-0.14,0.97,0.08,41.10
10,-0.04,1.03,0.08,41.19
10,0.08,1.05,0.08,41.19
10,0.08,0.98,0.14,44.44
10,0.04,0.98,0.13,42.97
10,-0.10,0.97,0.19,42.97
10,-0.09,0.97,0.14,41.38
10,-0.15,0.97,0.09,42.35
10,-0.07,1.01,0.09,42.35
10,0.05,1.06,0.07,42.19
10,0.05,1.10,0.11,45.95
10,0.06,0.98,0.11,45.63
10,-0.06,0.97,0.19,43.28
10,-0.06,0.99,0.13,38.62
10,-0.14,0.99,0.13,39.71
10,-0.09,0.98,0.09,39.71
10,-0.10,1.07,0.08,43.59
10,0.02,1.07,0.11,42.96
10,0.07,1.01,0.11,42.96
10,-0.02,0.96,0.18,43.48
10,-0.02,0.96,0.16,40.55
10,-0.14,0.99,0.16,40.51
10,-0.12,0.96,0.11,41.29
10,-0.12,1.00,0.07,40.07
10,-0.01,1.06,0.07,40.51
10,0.08,1.04,0.09,40.51
10,0.07,0.97,0.17,44.98
10,0.00,0.97,0.17,39.84
10,-0.13,0.99,0.17,39.84
10,-0.13,0.96,0.11,50.85
10,-0.13,0.96,0.07,44.38
10,-0.03,1.04,0.07,44.38
10,0.07,1.05,0.07,41.21
10,0.07,1.03,0.16,48.51
10,0.04,0.97,0.16,48.77
10,-0.10,0.98,0.19,47.21
10,-0.10,0.97,0.13,44.14
10,-0.15,0.97,0.13,44.59
10,-0.06,1.01,0.10,44.59
10,-0.01,1.06,0.07,45.86
10,0.06,1.06,0.13,45.77
10,0.06,0.99,0.13,45.77
10,-0.07,0.97,0.18,44.61
10,-0.07,0.99,0.14,46.75
10,-0.14,0.99,0.14,46.75
10,-0.09,0.99,0.10,45.97
10,-0.09,1.07,0.07,36.27
10,0.02,1.07,0.07,40.82
10,0.07,1.01,0.11,40.82
10,0.08,0.96,0.18,45.29
10,-0.04,0.96,0.15,45.36
10,-0.14,1.00,0.15,45.36
10,-0.11,0.97,0.10,45.21
10,-0.11,0.97,0.08,41.77
10,0.01,1.06,0.08,42.06
10,0.09,1.02,0.10,39.71
10,0.09,1.02,0.17,45.34
10,-0.00,0.96,0.17,43.08
10,-0.13,0.99,0.16,43.08
10,-0.13,0.96,0.12,46.09
10,-0.13,0.96,0.07,43.26
10,-0.03,1.04,0.07,43.26
10,-0.04,1.04,0.08,40.45
10,0.08,1.04,0.15,43.12
10,0.02,0.96,0.15,43.12
10,-0.11,0.99,0.18,42.45
10,-0.11,0.97,0.13,41.55
10,-0.14,0.97,0.13,41.61
10,-0.05,1.03,0.09,42.39
10,-0.05,1.06,0.07,45.62
10,0.06,1.06,0.07,35.02
10,0.05,0.98,0.13,35.02
10,0.05,0.99,0.19,49.69
10,-0.07,0.99,0.14,37.78
10,-0.15,0.98,0.14,37.78
10,-0.08,0.99,0.09,42.11
10,-0.08,0.99,0.07,46.49
10,0.03,1.07,0.07,46.25
10,0.06,1.00,0.12,40.77
10,0.06,0.97,0.18,46.48
10,-0.05,0.97,0.18,41.93
10,-0.14,0.98,0.15,41.93
10,-0.14,0.97,0.10,43.53
10,-0.10,0.97,0.07,40.71
10,0.01,1.07,0.07,40.71
10,0.08,1.02,0.10,49.90
10,0.08,1.02,0.18,48.09
10,-0.02,0.96,0.18,48.09
10,-0.14,0.99,0.16,48.09
10,-0.14,0.97,0.11,45.51
10,-0.12,0.97,0.11,45.54
10,-0.02,1.05,0.06,37.71
10,-0.02,1.03,0.08,48.33
10,0.08,1.03,0.08,46.47
10,0.01,0.98,0.16,46.47
10,0.01,0.99,0.18,39.86
10,-0.11,0.99,0.19,43.87
10,-0.14,0.96,0.12,43.87
10,-0.05,1.02,0.08,46.30
10,-0.05,1.06,0.08,45.30
10,0.06,1.06,0.08,44.76
10,0.05,0.97,0.15,44.76
10,0.05,0.98,0.18,44.75
10,-0.08,0.98,0.18,42.73
10,-0.15,0.98,0.13,42.73
10,-0.14,1.00,0.09,47.20
10,-0.08,1.00,0.07,46.23
10,0.04,1.06,0.07,46.23
10,0.06,1.00,0.11,43.52
10,0.06,1.00,0.18,44.83
10,-0.06,0.96,0.18,45.08
10,-0.15,0.99,0.14,42.73
10,-0.15,0.97,0.10,43.52
10,-0.09,0.97,0.10,38.82
10,0.02,1.07,0.06,38.82
10,0.02,1.01,0.10,44.44
10,0.07,1.01,0.11,41.40
10,-0.02,0.96,0.17,41.40
10,-0.00,1.00,0.15,42.40
10,-0.13,1.00,0.11,45.68
10,-0.12,0.96,0.11,45.68
10,-0.02,1.05,0.06,43.49
10,-0.02,1.03,0.11,45.87
10,0.07,1.03,0.11,45.44
10,0.00,0.96,0.17,40.74
10,0.00,0.99,0.17,46.32
10,-0.12,0.99,0.17,48.60
10,-0.13,0.96,0.12,48.60
10,-0.17,1.03,0.07,39.29
10,-0.04,1.03,0.08,43.74
10,0.07,1.05,0.08,43.74
10,0.03,0.98,0.15,45.15
10,0.03,0.98,0.19,41.73
10,-0.09,0.99,0.19,41.80
10,-0.14,0.97,0.14,44.15
10,-0.14,0.94,0.08,45.02
10,-0.07,1.01,0.08,40.01
10,0.04,1.07,0.07,40.01
10,0.06,0.98,0.11,39.80
10,0.06,0.98,0.12,45.24
10,-0.06,0.98,0.18,45.24
10,-0.14,0.99,0.14,45.72
10,-0.14,0.99,0.10,46.67
10,-0.09,0.98,0.10,46.67
10,0.03,1.07,0.07,44.50
10,0.03,1.07,0.11,44.28
10,0.06,1.00,0.11,44.54
10,-0.03,0.97,0.18,48.46
10,-0.03,1.00,0.15,42.71
10,-0.13,1.00,0.16,41.57
10,-0.12,0.96,0.10,41.57
10,-0.07,1.06,0.07,44.41
10,-0.01,1.06,0.10,39.98
10,0.07,1.03,0.10,39.98
10,0.00,0.96,0.18,50.60
10,0.00,0.99,0.17,42.87
10,-0.12,0.99,0.17,42.51
10,-0.13,0.97,0.11,42.51
10,-0.13,1.03,0.08,50.25
10,-0.03,1.03,0.08,36.60
10,0.06,1.04,0.09,36.60
10,0.03,0.98,0.15,51.17
10,0.03,0.98,0.18,49.60
10,-0.10,0.99,0.18,49.60
10,-0.14,0.97,0.13,42.81
10,-0.14,0.97,0.08,46.51
10,-0.07,1.02,0.08,46.23
10,0.04,1.05,0.07,47.02
10,0.04,1.04,0.13,45.60
10,0.05,0.98,0.13,49.21
10,-0.07,0.97,0.19,49.21
10,-0.07,0.98,0.14,57.17
10,-0.15,0.98,0.16,46.08
10,-0.09,0.98,0.09,46.08
10,-0.10,1.06,0.07,41.17
10,0.02,1.06,0.11,42.68
10,0.07,1.01,0.11,42.68
10,-0.03,0.96,0.17,46.06
10,-0.03,0.99,0.15,45.58
10,-0.13,0.99,0.15,45.45
10,-0.10,0.97,0.10,46.24
10,-0.10,1.05,0.07,48.90
10,-0.01,1.05,0.07,48.93
10,0.07,1.01,0.09,48.93
10,0.12,0.96,0.18,45.48
10,-0.00,0.96,0.15,41.46
10,-0.12,0.99,0.15,41.46
10,-0.12,0.96,0.11,47.04
10,-0.12,0.96,0.08,47.55
10,-0.03,1.04,0.08,47.20
10,0.08,1.04,0.10,47.20
10,0.08,1.03,0.14,48.91
10,0.02,0.97,0.14,49.00
10,-0.10,0.98,0.18,49.00
10,-0.08,0.96,0.13,45.25
10,-0.14,0.96,0.15,45.63
10,-0.06,1.02,0.09,45.63
10,0.05,1.05,0.08,42.56
10,0.05,1.05,0.14,48.08
10,0.04,0.98,0.14,48.08
10,-0.08,0.97,0.19,45.77
10,-0.08,0.97,0.14,45.21
10,-0.14,0.97,0.14,44.58
10,-0.08,0.99,0.09,47.72
10,-0.08,1.06,0.07,42.05
10,0.03,1.06,0.07,40.82
10,0.05,1.00,0.12,40.82
11,-0.01,0.96,0.15,45.65
11,-0.12,1.00,0.15,45.65
11,-0.12,0.97,0.12,47.08
11,-0.12,0.99,0.07,40.30
11,-0.02,1.05,0.07,40.55
11,0.08,1.03,0.08,40.55
11,0.08,0.97,0.16,43.78
11,0.02,0.97,0.16,39.12
11,-0.11,0.99,0.17,39.12
11,-0.07,0.96,0.12,41.83
11,-0.14,0.96,0.08,43.89
11,-0.05,1.02,0.08,43.89
11,0.06,1.05,0.08,49.50
11,0.06,1.05,0.15,40.82
11,0.04,0.99,0.15,41.40
11,-0.08,0.98,0.18,41.40
11,-0.08,0.98,0.14,51.65
11,-0.15,0.98,0.14,42.30
11,-0.08,1.01,0.09,42.30
11,-0.08,1.05,0.08,42.15
11,0.04,1.05,0.06,35.75
11,0.05,1.00,0.13,35.75
11,0.01,0.97,0.18,43.53
11,-0.05,0.97,0.14,45.65
11,-0.14,0.99,0.14,45.65
11,-0.10,0.98,0.10,39.47
11,-0.10,0.99,0.06,47.73
11,0.01,1.06,0.06,48.16
11,0.07,1.01,0.10,43.46
11,0.07,0.97,0.18,46.81
11,-0.02,0.97,0.18,41.49
11,-0.13,0.99,0.15,41.49
11,-0.18,0.96,0.11,45.07
11,-0.12,0.96,0.07,38.45
11,-0.01,1.06,0.07,38.45
11,0.08,1.02,0.10,44.25
11,0.08,1.02,0.17,45.85
11,0.01,0.97,0.17,45.71
11,-0.12,1.00,0.16,41.79
11,-0.12,0.97,0.12,42.10
11,-0.14,0.97,0.12,42.18
11,-0.05,1.02,0.08,42.18
11,-0.06,1.04,0.08,47.13
11,0.06,1.04,0.09,46.89
11,0.04,0.98,0.15,46.89
11,-0.09,0.98,0.18,48.31
11,-0.09,0.98,0.12,38.69
11,-0.13,0.97,0.12,38.69
11,-0.07,1.01,0.09,41.66
11,-0.07,1.05,0.07,42.90
11,0.04,1.05,0.07,46.53
11,0.05,0.98,0.13,46.53
11,0.05,0.96,0.18,42.15
11,-0.06,0.96,0.14,41.41
11,-0.14,0.99,0.14,41.41
11,-0.15,0.98,0.09,43.86
11,-0.09,0.98,0.07,46.38
11,0.02,1.06,0.07,46.38
11,0.06,1.01,0.11,43.96
11,0.06,1.03,0.18,42.16
11,-0.03,0.97,0.18,42.18
11,-0.12,1.00,0.14,39.83
11,-0.12,0.97,0.10,41.82
11,-0.12,0.97,0.10,47.23
11,0.00,1.05,0.08,47.23
11,0.01,1.02,0.10,39.32
11,0.08,1.02,0.10,44.89
11,-0.00,0.97,0.17,44.89
11,-0.12,0.99,0.16,38.86
11,-0.12,0.99,0.11,46.69
11,-0.12,0.97,0.11,46.47
11,-0.03,1.04,0.07,50.39
11,-0.03,1.04,0.09,39.08
11,0.07,1.04,0.09,43.66
11,0.04,0.97,0.15,43.66
11,0.04,0.99,0.18,41.64
11,-0.09,0.99,0.13,42.85
11,-0.14,0.96,0.13,42.85
11,-0.07,1.01,0.08,43.06
11,-0.07,1.01,0.08,46.04
11,0.05,1.06,0.08,46.04
11,0.04,0.98,0.14,45.43
11,0.04,0.97,0.19,42.61
11,-0.07,0.97,0.19,42.61
11,-0.14,0.98,0.14,46.53
11,-0.14,0.99,0.08,42.99
11,-0.08,0.99,0.08,40.10
11,0.02,1.06,0.07,40.10
11,0.06,0.99,0.12,44.57
11,0.06,0.99,0.11,43.43
11,-0.04,0.96,0.18,43.43
11,-0.14,0.98,0.14,44.76
11,-0.14,0.97,0.11,38.69
11,-0.10,0.97,0.11,38.58
11,-0.01,1.06,0.07,46.42
11,-0.01,1.00,0.11,42.07
11,0.07,1.00,0.11,46.58
11,-0.01,0.97,0.18,46.58
11,-0.06,0.99,0.16,40.81
11,-0.12,0.99,0.18,42.01
11,-0.13,0.96,0.12,42.01
11,-0.03,1.05,0.07,41.73
11,-0.03,1.05,0.09,40.98
11,0.06,1.03,0.09,40.98
11,0.03,0.98,0.16,43.62
11,0.03,0.99,0.18,47.00
11,-0.10,0.99,0.18,47.58
11,-0.13,0.98,0.13,49.93
11,-0.13,1.03,0.08,49.27
11,-0.05,1.03,0.08,44.46
11,0.05,1.04,0.08,44.46
11,0.04,0.98,0.14,49.38
11,0.04,0.98,0.20,41.72
11,-0.08,0.98,0.20,41.72
11,-0.14,0.99,0.12,46.91
11,-0.14,1.00,0.09,41.51
11,-0.08,1.00,0.09,41.85
11,0.03,1.06,0.07,45.77
11,0.03,0.99,0.13,41.29
11,0.05,0.99,0.13,41.85
11,-0.04,0.97,0.18,41.85
11,-0.00,0.99,0.14,46.19
11,-0.13,0.99,0.16,47.45
11,-0.10,0.97,0.10,47.45
11,-0.00,1.05,0.07,55.49
11,-0.00,1.05,0.11,45.29
11,0.07,1.01,0.11,45.24
11,-0.01,0.97,0.18,46.03
11,-0.01,1.00,0.16,42.77
11,-0.12,1.00,0.16,48.42
11,-0.11,0.97,0.11,48.42
11,-0.11,1.04,0.06,41.29
11,-0.02,1.04,0.02,45.69
11,0.07,1.03,0.08,45.69
11,0.08,0.98,0.16,41.44
11,0.01,0.98,0.17,46.89
11,-0.11,0.99,0.17,46.89
11,-0.14,0.97,0.13,41.47
11,-0.14,0.97,0.08,48.30
11,-0.05,1.03,0.08,48.04
11,0.06,1.04,0.09,52.74
11,0.06,0.97,0.15,45.07
11,0.04,0.97,0.15,46.27
11,-0.08,0.98,0.18,46.27
11,-0.07,0.97,0.13,44.96
11,-0.14,0.97,0.15,39.73
11,-0.08,1.00,0.09,39.73
11,0.04,1.05,0.08,39.78
11,0.04,1.05,0.13,51.72
11,0.05,0.99,0.13,51.96
11,-0.05,0.97,0.18,47.26
11,-0.05,0.99,0.14,49.81
11,-0.13,0.99,0.14,46.52
11,-0.09,0.98,0.10,46.52
11,-0.11,1.05,0.07,43.77
11,0.01,1.05,0.11,42.75
11,0.06,1.01,0.11,42.75
11,-0.02,0.97,0.18,41.80
11,-0.02,0.97,0.16,46.70
11,-0.12,0.98,0.16,46.70
11,-0.11,0.97,0.10,46.21
11,-0.11,0.99,0.07,43.64
11,-0.02,1.05,0.07,43.32
11,0.06,1.02,0.10,43.32
11,0.06,0.97,0.16,45.15
11,0.01,0.97,0.17,44.18
11,-0.11,0.99,0.17,44.18
11,-0.12,0.97,0.11,47.30
11,-0.12,0.97,0.07,42.52
11,-0.04,1.04,0.07,42.52
11,0.06,1.03,0.08,41.08
11,0.06,1.04,0.15,40.12
11,0.03,0.97,0.15,40.24
11,-0.09,0.98,0.18,43.37
11,-0.09,0.97,0.12,41.87
11,-0.14,0.97,0.12,45.84
11,-0.06,1.00,0.09,45.84
11,-0.09,1.05,0.08,42.30
11,0.04,1.05,0.07,49.08
11,0.05,0.99,0.13,49.08
11,-0.05,0.96,0.18,44.08
11,-0.05,0.96,0.14,39.24
11,-0.13,0.97,0.14,39.11
11,-0.09,0.99,0.09,41.46
11,-0.09,0.99,0.07,41.20
11,0.02,1.06,0.07,35.94
11,0.06,1.01,0.11,35.94
11,0.06,0.97,0.17,43.04
11,-0.03,0.97,0.16,38.64
11,-0.12,0.99,0.16,38.64
11,-0.10,0.97,0.10,43.79
11,-0.10,0.97,0.07,41.52
11,-0.01,1.05,0.07,41.52
11,0.07,1.02,0.11,41.27
11,0.07,1.02,0.16,41.07
11,-0.00,0.96,0.16,40.89
11,-0.11,0.99,0.16,44.03
11,-0.11,0.98,0.12,48.07
11,-0.12,0.98,0.12,49.99
11,-0.04,1.04,0.07,49.99
11,-0.05,1.04,0.09,46.89
11,0.07,1.04,0.09,43.02
11,0.04,0.97,0.16,43.02
11,-0.10,0.98,0.18,44.08
11,-0.10,0.98,0.12,42.17
11,-0.13,0.98,0.12,41.82
11,-0.06,1.02,0.09,40.25
11,-0.06,1.05,0.09,44.12
11,0.05,1.05,0.09,46.77
11,0.04,0.99,0.13,46.77
11,0.00,0.98,0.19,41.59
11,-0.06,0.98,0.13,42.61
11,-0.14,0.98,0.13,42.61
11,-0.09,0.99,0.10,43.40
11,-0.09,0.99,0.07,38.88
11,0.02,1.05,0.07,38.88
11,0.07,1.00,0.12,44.86
11,0.07,0.98,0.17,42.15
11,-0.03,0.98,0.17,41.87
11,-0.13,0.99,0.14,39.52
11,-0.13,0.98,0.10,37.93
11,-0.10,0.98,0.07,40.19
11,0.00,1.06,0.07,40.19
11,0.01,1.01,0.10,46.12
11,0.07,1.01,0.18,51.90
11,-0.00,0.97,0.18,51.90
11,-0.12,0.99,0.16,43.67
11,-0.12,0.97,0.11,47.78
11,-0.12,0.97,0.11,48.24
11,-0.03,1.04,0.07,39.62
11,-0.03,1.03,0.09,40.08
11,0.07,1.03,0.09,41.02
11,0.02,0.98,0.15,41.02
12,-0.07,0.98,0.14,43.29
12,-0.14,0.98,0.14,43.29
12,-0.15,1.00,0.08,40.75
12,-0.08,1.00,0.08,45.90
12,0.02,1.05,0.08,45.90
12,0.06,1.00,0.12,42.51
12,0.06,1.04,0.17,42.91
12,-0.04,0.97,0.17,42.63
12,-0.13,0.99,0.14,42.63
12,-0.13,0.98,0.10,46.72
12,-0.10,0.98,0.10,47.57
12,0.00,1.05,0.07,47.57
12,0.01,1.01,0.10,42.60
12,0.08,1.01,0.11,43.48
12,-0.02,0.97,0.17,43.48
12,-0.12,0.99,0.16,48.14
12,-0.12,0.99,0.11,50.40
12,-0.12,0.98,0.11,50.84
12,-0.03,1.04,0.07,48.49
12,-0.03,1.02,0.09,47.33
12,0.07,1.02,0.09,43.72
12,0.01,0.97,0.16,43.72
12,0.01,0.99,0.16,43.56
12,-0.10,0.99,0.13,44.23
12,-0.13,0.97,0.13,44.23
12,-0.18,1.02,0.08,46.47
12,-0.06,1.02,0.08,45.97
12,0.05,1.03,0.08,45.97
12,0.04,0.98,0.14,44.65
12,0.04,0.99,0.18,43.08
12,-0.08,0.99,0.18,43.13
12,-0.14,0.98,0.13,45.48
12,-0.14,1.01,0.08,44.57
12,-0.07,1.01,0.08,40.39
12,0.03,1.05,0.08,40.39
12,0.05,1.00,0.12,43.42
12,0.05,1.00,0.11,46.29
12,-0.05,0.97,0.17,46.29
12,-0.13,0.99,0.15,41.79
12,-0.13,0.99,0.09,46.64
12,-0.09,0.99,0.09,46.52
12,0.00,1.05,0.08,39.47
12,0.00,1.01,0.11,45.58
12,0.06,1.01,0.11,46.93
12,-0.02,0.97,0.18,46.93
12,-0.01,0.99,0.15,44.15
12,-0.13,0.99,0.17,47.80
12,-0.11,0.98,0.11,47.80
12,-0.02,1.05,0.07,40.45
12,-0.02,1.05,0.10,41.41
12,0.06,1.02,0.10,41.41
12,0.01,0.97,0.17,37.64
12,0.01,0.99,0.17,43.51
12,-0.10,0.99,0.17,45.09
12,-0.12,0.97,0.12,45.09
12,-0.12,1.04,0.08,45.56
12,-0.04,1.04,0.09,39.71
12,0.06,1.03,0.09,39.71
12,0.09,0.98,0.15,45.83
12,0.03,0.98,0.17,45.17
12,-0.08,0.98,0.17,45.17
12,-0.14,0.98,0.12,44.56
12,-0.14,0.95,0.08,48.80
12,-0.07,1.02,0.08,48.71
12,0.04,1.05,0.08,44.79
12,0.04,0.99,0.13,45.06
12,0.05,0.99,0.13,43.52
12,-0.06,0.97,0.18,43.52
12,-0.07,0.98,0.14,41.29
12,-0.14,0.98,0.16,47.91
12,-0.09,0.98,0.10,47.91
12,0.01,1.05,0.07,42.49
12,0.01,1.05,0.11,43.31
12,0.05,1.00,0.11,43.40
12,-0.02,0.98,0.17,44.19
12,-0.02,0.99,0.15,43.95
12,-0.12,0.99,0.15,45.43
12,-0.11,0.98,0.11,45.43
12,-0.11,1.05,0.07,47.04
12,-0.01,1.05,0.10,44.70
12,0.06,1.02,0.10,44.70
12,0.06,0.96,0.16,42.67
12,0.00,0.96,0.15,38.34
12,-0.11,0.99,0.15,38.34
12,-0.11,0.98,0.12,40.79
12,-0.11,0.98,0.08,41.54
12,-0.04,1.04,0.08,41.77
12,0.06,1.03,0.09,40.20
12,0.06,0.98,0.15,47.91
12,0.03,0.98,0.15,45.33
12,-0.09,0.99,0.17,45.33
12,-0.08,0.97,0.12,42.06
12,-0.14,0.97,0.09,43.20
12,-0.06,1.02,0.09,43.20
12,0.04,1.04,0.08,43.61
12,0.04,1.04,0.13,42.35
12,0.04,0.99,0.13,42.42
12,-0.06,0.98,0.19,41.63
12,-0.06,0.99,0.13,48.61
12,-0.13,0.99,0.13,44.35
12,-0.09,0.99,0.09,44.35
12,-0.09,1.05,0.08,46.54
12,0.03,1.05,0.12,46.31
12,0.05,1.00,0.12,46.31
12,-0.03,0.97,0.18,39.97
12,-0.03,0.97,0.14,49.59
12,-0.13,0.98,0.14,49.59
12,-0.10,0.98,0.09,49.81
12,-0.10,0.99,0.08,51.33
12,-0.01,1.05,0.08,50.86
12,0.07,1.02,0.11,42.25
12,0.07,0.97,0.16,42.53
12,-0.01,0.97,0.16,45.49
12,-0.12,0.99,0.16,45.49
12,-0.12,0.97,0.11,39.19
12,-0.12,0.97,0.08,41.74
12,-0.03,1.03,0.08,41.74
12,0.06,1.03,0.10,44.16
12,0.06,1.04,0.17,44.23
12,0.01,0.97,0.17,44.18
12,-0.09,0.99,0.17,41.83
12,-0.09,0.97,0.12,45.63
12,-0.13,0.97,0.12,47.16
12,-0.06,1.02,0.08,47.16
12,-0.01,1.04,0.08,53.64
12,0.05,1.04,0.07,49.45
12,0.04,0.98,0.14,49.45
12,-0.07,0.98,0.18,47.34
12,-0.07,0.98,0.13,47.00
12,-0.14,0.99,0.13,47.24
12,-0.08,1.00,0.09,46.46
12,-0.08,1.05,0.08,42.09
12,0.03,1.05,0.08,39.96
12,0.05,1.00,0.11,39.96
12,0.05,0.97,0.17,48.53
12,-0.03,0.97,0.14,45.60
12,-0.13,0.99,0.14,45.60
12,-0.17,0.98,0.10,44.80
12,-0.10,0.98,0.08,43.21
12,0.01,1.05,0.08,43.21
12,0.06,1.01,0.11,38.66
12,0.06,1.03,0.18,43.15
12,-0.01,0.97,0.18,43.38
12,-0.12,0.99,0.15,41.03
12,-0.12,0.98,0.10,41.53
12,-0.10,0.98,0.10,48.27
12,-0.03,1.04,0.08,48.27
12,-0.00,1.03,0.09,45.46
12,0.06,1.03,0.11,48.91
12,0.01,0.97,0.17,48.91
12,-0.10,0.98,0.17,40.93
12,-0.10,0.98,0.11,43.31
12,-0.13,0.98,0.11,43.11
12,-0.05,1.02,0.08,45.46
12,-0.05,1.03,0.09,50.70
12,0.05,1.03,0.09,42.20
12,0.03,0.98,0.15,42.20
12,0.04,0.98,0.18,39.13
12,-0.09,0.98,0.13,39.66
12,-0.13,0.97,0.13,39.66
12,-0.07,1.01,0.09,45.13
12,-0.07,1.01,0.09,43.27
12,0.03,1.04,0.09,43.27
12,0.05,0.99,0.12,41.61
12,0.05,0.98,0.18,43.10
12,-0.05,0.98,0.18,43.12
12,-0.13,0.98,0.14,44.68
12,-0.13,0.99,0.09,40.68
12,-0.09,0.99,0.09,43.87
12,0.01,1.05,0.08,43.87
12,0.06,1.00,0.11,41.04
12,0.06,1.00,0.17,41.07
12,-0.02,0.97,0.17,41.07
12,-0.12,0.99,0.15,41.01
12,-0.12,0.98,0.10,44.08
12,-0.11,0.98,0.10,44.35
12,-0.03,1.05,0.08,43.57
12,-0.03,1.03,0.10,42.85
12,0.07,1.03,0.10,43.37
12,0.00,0.97,0.16,43.37
12,0.02,0.99,0.17,40.99
12,-0.10,0.99,0.18,39.20
12,-0.12,0.97,0.11,39.20
12,-0.05,1.04,0.08,43.26
12,-0.05,1.04,0.08,42.39
12,0.06,1.03,0.08,42.24
12,0.03,0.98,0.15,45.37
12,0.03,0.97,0.17,45.02
12,-0.09,0.97,0.17,38.51
12,-0.12,0.98,0.13,38.51
12,-0.12,1.02,0.09,41.96
12,-0.06,1.02,0.09,38.36
12,0.04,1.04,0.09,38.36
12,0.04,0.99,0.13,44.53
12,0.04,0.99,0.18,42.24
12,-0.05,0.98,0.18,42.24
12,-0.13,0.98,0.13,41.84
12,-0.13,0.99,0.09,48.76
12,-0.08,0.99,0.09,49.00
12,0.01,1.05,0.09,41.17
12,0.01,1.00,0.10,41.03
12,0.06,1.00,0.10,44.60
12,-0.02,0.98,0.18,44.60
12,-0.00,0.99,0.14,44.77
12,-0.13,0.99,0.17,41.47
12,-0.10,0.98,0.10,41.47
12,-0.01,1.05,0.07,42.29
12,-0.01,1.05,0.11,39.65
12,0.06,1.02,0.11,39.30
12,-0.01,0.98,0.16,39.30
12,-0.01,0.99,0.16,42.99
12,-0.11,0.99,0.16,40.46
12,-0.12,0.97,0.11,40.46
12,-0.11,1.04,0.08,41.09
12,-0.04,1.04,0.08,40.81
12,0.06,1.02,0.08,40.81
12,0.02,0.98,0.16,44.37
12,0.02,0.98,0.17,45.59
12,-0.10,0.98,0.17,45.59
12,-0.13,0.98,0.13,45.78
12,-0.13,0.95,0.08,40.70
12,-0.06,1.01,0.08,41.25
12,0.04,1.05,0.08,44.39
12,0.04,0.99,0.14,39.35
12,0.03,0.99,0.17,43.07
12,-0.06,0.98,0.17,43.07
12,-0.01,0.98,0.13,47.58
12,-0.13,0.98,0.09,43.68
12,-0.09,1.00,0.09,43.68
12,0.01,1.04,0.07,40.73
12,0.01,1.06,0.13,39.99
12,0.05,1.00,0.13,40.18
12,-0.03,0.97,0.18,48.01
13,-0.11,0.99,0.15,46.63
13,-0.12,0.97,0.11,41.15
13,-0.12,1.04,0.08,40.51
13,-0.04,1.04,0.10,43.65
13,0.07,1.03,0.10,43.65
13,0.08,0.97,0.16,48.55
13,0.02,0.97,0.15,47.46
13,-0.10,0.99,0.15,47.46
13,-0.13,0.97,0.11,39.36
13,-0.13,0.96,0.09,44.32
13,-0.06,1.02,0.09,44.54
13,0.04,1.04,0.09,43.76
13,0.04,0.99,0.14,41.97
13,0.04,0.99,0.14,46.65
13,-0.08,0.98,0.18,46.65
13,-0.07,0.98,0.12,48.06
13,-0.13,0.98,0.08,41.51
13,-0.08,0.99,0.08,41.51
13,0.02,1.05,0.08,46.36
13,0.02,1.05,0.13,43.00
13,0.05,1.00,0.13,42.93
13,-0.04,0.98,0.17,41.37
13,-0.04,0.99,0.14,42.63
13,-0.13,0.99,0.14,46.51
13,-0.10,0.99,0.10,46.51
13,-0.10,1.04,0.07,43.23
13,0.00,1.04,0.10,44.58
13,0.06,1.00,0.10,44.58
13,0.06,0.98,0.18,47.74
13,-0.01,0.98,0.14,50.46
13,-0.11,0.99,0.14,50.46
13,-0.11,0.98,0.11,45.32
13,-0.11,0.98,0.08,43.55
13,-0.03,1.05,0.08,43.70
13,0.05,1.02,0.10,47.62
13,0.05,0.97,0.15,53.24
13,0.01,0.97,0.15,48.42
13,-0.10,0.99,0.17,48.42
13,-0.12,0.97,0.10,48.28
13,-0.12,0.97,0.08,44.05
13,-0.04,1.04,0.08,44.05
13,0.05,1.04,0.08,45.50
13,0.05,1.04,0.15,38.00
13,0.03,0.98,0.15,38.24
13,-0.07,0.98,0.17,46.86
13,-0.07,0.98,0.13,44.38
13,-0.13,0.98,0.13,44.98
13,-0.08,1.01,0.09,44.98
13,-0.10,1.04,0.08,43.40
13,0.02,1.04,0.08,42.54
13,0.05,0.98,0.14,42.54
13,-0.04,0.98,0.18,41.26
13,-0.04,0.98,0.13,47.09
13,-0.13,0.98,0.13,47.09
13,-0.09,0.99,0.09,47.41
13,-0.09,0.98,0.08,41.40
13,0.01,1.04,0.08,40.84
13,0.06,1.00,0.11,47.11
13,0.06,0.97,0.18,42.56
13,-0.02,0.97,0.14,42.77
13,-0.11,0.99,0.14,42.77
13,-0.11,0.98,0.09,36.39
13,-0.11,0.98,0.07,39.52
13,-0.02,1.04,0.07,39.52
13,0.06,1.02,0.11,42.80
13,0.06,1.03,0.17,44.67
13,0.00,0.97,0.17,44.63
13,-0.10,1.00,0.15,39.93
13,-0.10,0.98,0.10,45.11
13,-0.12,0.98,0.10,50.13
13,-0.04,1.03,0.07,50.13
13,-0.02,1.02,0.10,43.61
13,0.04,1.02,0.09,38.53
13,0.02,0.98,0.15,38.53
13,-0.09,0.98,0.17,42.16
13,-0.09,0.98,0.14,43.02
13,-0.13,0.97,0.14,43.13
13,-0.07,1.01,0.09,46.26
13,-0.07,1.04,0.08,41.70
13,0.04,1.04,0.08,43.21
13,0.03,0.98,0.14,43.21
13,0.03,0.98,0.17,42.43
13,-0.06,0.98,0.14,44.87
13,-0.13,0.98,0.14,44.87
13,-0.09,0.99,0.09,44.38
13,-0.09,0.99,0.08,50.39
13,0.01,1.05,0.08,50.39
13,0.05,1.00,0.13,47.20
13,0.05,1.03,0.17,46.95
13,-0.03,0.97,0.17,47.31
13,-0.12,0.98,0.13,43.39
13,-0.12,0.98,0.09,38.85
13,-0.10,0.98,0.09,38.81
13,-0.02,1.05,0.08,38.81
13,-0.01,1.01,0.12,48.26
13,0.05,1.01,0.09,55.99
13,-0.01,0.98,0.16,55.99
13,-0.11,0.99,0.15,42.08
13,-0.11,0.97,0.11,43.56
13,-0.11,0.97,0.11,43.62
13,-0.04,1.04,0.08,47.54
13,-0.04,1.02,0.10,45.98
13,0.05,1.02,0.10,46.35
13,0.02,0.98,0.15,46.35
13,0.04,0.98,0.18,47.54
13,-0.09,0.98,0.18,42.29
13,-0.13,0.98,0.12,42.29
13,-0.06,1.03,0.08,42.31
13,-0.06,1.03,0.09,40.75
13,0.04,1.03,0.09,41.38
13,0.04,0.98,0.14,43.73
13,0.04,0.97,0.18,44.72
13,-0.06,0.97,0.18,45.88
13,-0.13,0.97,0.13,45.88
13,-0.13,1.00,0.09,44.20
13,-0.08,1.00,0.08,41.27
13,0.02,1.05,0.08,41.27
13,0.05,1.00,0.13,38.01
13,0.05,1.00,0.17,40.80
13,-0.03,0.98,0.17,40.80
13,-0.12,0.99,0.14,40.39
13,-0.12,0.99,0.10,42.96
13,-0.10,0.99,0.10,42.97
13,0.00,1.05,0.08,46.88
13,0.00,1.01,0.11,46.41
13,0.06,1.01,0.11,52.02
13,-0.00,0.98,0.16,52.02
13,-0.05,1.00,0.15,45.01
13,-0.11,1.00,0.17,47.06
13,-0.11,0.97,0.10,47.06
13,-0.03,1.05,0.08,46.76
13,-0.03,1.05,0.09,39.42
13,0.05,1.02,0.09,39.33
13,0.02,0.98,0.17,44.81
13,0.02,0.99,0.16,45.55
13,-0.09,0.99,0.16,47.55
13,-0.12,0.97,0.11,47.55
13,-0.12,1.02,0.08,44.47
13,-0.05,1.02,0.10,47.96
13,0.04,1.02,0.10,47.96
13,0.04,0.99,0.14,40.82
13,0.04,0.99,0.17,40.30
13,-0.07,0.98,0.17,40.30
13,-0.12,0.98,0.13,39.95
13,-0.12,0.95,0.09,44.49
13,-0.07,1.01,0.09,45.91
13,0.02,1.03,0.09,45.91
13,0.02,0.99,0.13,43.68
13,0.04,0.99,0.17,41.60
13,-0.04,0.97,0.17,41.60
13,-0.06,0.99,0.14,47.55
13,-0.12,0.99,0.10,40.66
13,-0.10,1.00,0.10,40.66
13,0.00,1.05,0.07,42.73
13,0.00,1.01,0.11,48.13
13,0.06,1.01,0.11,47.81
13,-0.02,0.96,0.17,50.95
13,-0.02,0.99,0.15,49.44
13,-0.11,0.99,0.15,47.21
13,-0.10,0.98,0.10,47.21
13,-0.09,1.04,0.08,42.24
13,-0.02,1.04,0.10,45.30
13,0.06,1.02,0.10,45.30
13,0.01,0.98,0.16,38.32
13,0.01,0.98,0.15,43.69
13,-0.09,0.99,0.15,43.62
13,-0.12,0.97,0.11,44.41
13,-0.12,0.97,0.09,46.07
13,-0.05,1.03,0.09,45.40
13,0.05,1.04,0.10,45.40
13,0.05,0.98,0.15,46.84
13,0.03,0.98,0.18,44.71
13,-0.07,0.99,0.18,44.71
13,-0.12,0.98,0.12,38.49
13,-0.12,0.98,0.09,37.99
13,-0.07,1.02,0.09,37.99
13,0.03,1.04,0.08,44.25
13,0.03,1.05,0.13,47.30
13,0.05,0.99,0.13,47.08
13,-0.04,0.98,0.19,50.22
13,-0.04,0.98,0.13,46.45
13,-0.13,0.98,0.13,41.07
13,-0.10,0.99,0.10,41.07
13,-0.12,1.05,0.08,47.39
13,0.01,1.05,0.12,48.95
13,0.05,1.00,0.12,48.95
13,-0.03,0.97,0.17,45.96
13,-0.03,0.97,0.14,42.10
13,-0.12,0.98,0.14,41.85
13,-0.10,0.98,0.10,41.07
13,-0.10,0.98,0.08,44.72
13,-0.02,1.04,0.08,40.15
13,0.06,1.01,0.10,40.15
13,0.00,0.97,0.17,42.69
13,0.00,0.97,0.16,45.03
13,-0.10,0.99,0.16,45.03
13,-0.12,0.98,0.12,45.44
13,-0.12,0.98,0.08,43.50
13,-0.04,1.03,0.08,43.50
13,0.05,1.02,0.10,39.92
13,0.05,1.05,0.15,44.77
13,0.03,0.99,0.15,41.95
13,-0.08,0.99,0.16,41.95
13,-0.08,0.98,0.11,45.04
13,-0.11,0.98,0.09,38.17
13,-0.07,1.02,0.09,38.17
13,-0.10,1.04,0.09,42.94
13,0.02,1.04,0.14,41.94
13,0.04,0.99,0.14,41.94
13,-0.05,0.97,0.17,45.84
13,-0.05,0.98,0.13,42.75
13,-0.13,0.98,0.13,42.96
13,-0.09,1.00,0.09,44.53
13,-0.09,1.04,0.08,44.69
13,0.01,1.04,0.08,46.88
13,0.06,1.00,0.12,46.88
13,0.03,0.97,0.16,50.29
13,-0.03,0.97,0.14,42.60
13,-0.12,0.99,0.14,42.60
13,-0.11,0.98,0.10,41.24
13,-0.11,0.98,0.09,38.06
13,-0.01,1.05,0.09,37.80
13,0.06,1.00,0.12,40.94
13,0.06,0.98,0.16,39.91
13,-0.00,0.98,0.16,41.09
13,-0.11,0.99,0.15,41.09
13,-0.11,0.98,0.10,47.71
13,-0.12,0.98,0.07,45.48
13,-0.04,1.04,0.07,45.48
13,-0.01,1.02,0.10,40.28
13,0.05,1.02,0.15,42.57
13,0.02,0.98,0.15,42.57
13,-0.09,0.99,0.16,48.40
14,-0.13,0.98,0.12,45.71
14,-0.08,1.00,0.09,42.58
14,-0.08,1.04,0.08,46.29
14,0.01,1.04,0.08,42.86
14,0.05,1.00,0.13,42.86
14,0.03,0.98,0.17,42.78
14,-0.03,0.98,0.19,50.47
14,-0.12,0.99,0.12,50.47
14,-0.10,0.99,0.10,42.24
14,-0.10,0.99,0.08,41.06
14,-0.01,1.04,0.08,40.80
14,0.05,1.00,0.12,42.37
14,0.05,1.03,0.18,41.87
14,-0.00,0.97,0.18,42.15
14,-0.11,0.98,0.16,42.15
14,-0.11,0.97,0.12,47.04
14,-0.11,0.97,0.07,41.52
14,-0.03,1.04,0.07,41.52
14,0.05,1.02,0.10,37.81
14,0.05,1.02,0.16,46.25
14,0.01,0.98,0.16,46.25
14,-0.10,0.99,0.16,40.71
14,-0.10,0.97,0.12,37.15
14,-0.12,0.97,0.12,37.43
14,-0.06,1.03,0.08,41.35
14,-0.06,1.03,0.10,43.16
14,0.04,1.03,0.10,43.34
14,0.03,0.98,0.15,43.34
14,0.06,0.98,0.17,44.30
14,-0.07,0.98,0.18,42.41
14,-0.13,0.98,0.12,42.41
14,-0.08,1.00,0.07,43.71
14,-0.08,1.00,0.09,47.39
14,0.03,1.04,0.09,47.21
14,0.04,1.00,0.13,42.51
14,0.04,0.97,0.16,44.20
14,-0.05,0.97,0.16,45.04
14,-0.12,0.99,0.13,45.04
14,-0.10,0.98,0.10,42.45
14,-0.10,0.98,0.08,47.25
14,-0.00,1.04,0.08,47.25
14,0.05,1.01,0.11,50.89
14,0.05,1.01,0.17,43.77
14,-0.01,0.97,0.17,43.77
14,-0.11,0.99,0.15,42.63
14,-0.11,0.97,0.10,42.43
14,-0.10,0.97,0.10,47.01
14,-0.02,1.04,0.07,47.01
14,-0.02,1.01,0.10,43.15
14,0.05,1.01,0.11,38.63
14,0.01,0.98,0.17,38.63
14,0.03,0.99,0.16,47.38
14,-0.09,0.99,0.12,47.11
14,-0.11,0.97,0.12,47.11
14,-0.04,1.03,0.08,43.04
14,-0.04,1.02,0.09,44.82
14,0.05,1.02,0.09,44.77
14,0.03,0.98,0.15,45.55
14,0.03,0.98,0.17,37.90
14,-0.08,0.98,0.17,47.56
14,-0.12,0.97,0.12,47.56
14,-0.06,1.01,0.09,41.30
14,-0.06,1.01,0.09,45.52
14,0.03,1.03,0.09,45.52
14,0.03,0.99,0.13,43.64
14,0.03,0.99,0.18,46.81
14,-0.05,0.97,0.18,46.74
14,-0.12,0.98,0.13,42.04
14,-0.12,1.00,0.10,39.33
14,-0.10,1.00,0.10,42.37
14,-0.00,1.05,0.08,42.37
14,-0.01,0.99,0.12,47.98
14,0.05,0.99,0.11,41.38
14,-0.03,0.97,0.18,41.38
14,-0.11,0.99,0.14,46.45
14,-0.11,0.99,0.10,41.88
14,-0.10,0.99,0.10,41.88
14,-0.02,1.04,0.08,42.19
14,-0.02,1.02,0.11,45.65
14,0.05,1.02,0.11,45.41
14,0.00,0.97,0.17,46.19
14,0.00,0.99,0.15,41.71
14,-0.10,0.99,0.15,50.31
14,-0.12,0.98,0.10,50.31
14,-0.10,1.04,0.08,52.29
14,-0.04,1.04,0.09,43.07
14,0.04,1.02,0.09,43.07
14,0.03,0.98,0.16,48.40
14,0.03,0.99,0.17,50.95
14,-0.08,0.99,0.17,50.90
14,-0.12,0.98,0.12,46.20
14,-0.12,1.02,0.08,48.16
14,-0.07,1.02,0.08,42.72
14,0.03,1.03,0.09,42.72
14,0.04,1.00,0.12,47.49
14,0.04,1.00,0.10,46.36
14,-0.05,0.99,0.16,46.36
14,-0.13,0.99,0.12,44.78
14,-0.13,0.99,0.10,38.87
14,-0.09,1.00,0.10,38.53
14,0.00,1.04,0.09,46.36
14,0.00,1.00,0.12,40.17
14,0.04,1.00,0.12,51.40
14,-0.04,0.98,0.18,51.40
14,-0.04,0.99,0.14,44.52
14,-0.11,0.99,0.17,41.55
14,-0.10,0.99,0.11,41.55
14,-0.08,1.05,0.08,46.00
14,-0.02,1.05,0.12,40.09
14,0.05,1.00,0.12,40.09
14,-0.01,0.98,0.17,46.37
14,-0.01,0.99,0.15,42.69
14,-0.10,0.99,0.15,42.46
14,-0.11,0.98,0.11,47.16
14,-0.11,1.04,0.08,40.35
14,-0.03,1.04,0.08,39.41
14,0.04,1.02,0.11,39.41
14,0.02,0.98,0.16,45.35
14,0.02,0.98,0.16,44.73
14,-0.09,0.99,0.16,44.73
14,-0.12,0.98,0.12,46.00
14,-0.12,0.98,0.08,46.86
14,-0.06,1.02,0.08,46.39
14,0.04,1.03,0.10,44.04
14,0.04,1.05,0.14,39.35
14,0.03,0.99,0.14,42.33
14,-0.06,0.98,0.17,42.33
14,-0.01,0.99,0.12,43.79
14,-0.13,0.99,0.09,44.30
14,-0.08,1.00,0.09,44.30
14,0.02,1.04,0.09,46.18
14,0.02,1.04,0.12,41.81
14,0.04,1.00,0.12,41.81
14,-0.03,0.97,0.17,45.84
14,-0.03,0.99,0.15,41.48
14,-0.12,0.99,0.15,41.88
14,-0.10,0.99,0.11,38.75
14,-0.10,1.04,0.09,45.33
14,-0.01,1.04,0.09,48.44
14,0.04,1.01,0.11,48.44
14,0.04,0.98,0.16,44.89
14,-0.02,0.98,0.15,46.40
14,-0.10,0.99,0.15,46.40
14,-0.12,0.98,0.11,45.76
14,-0.12,0.97,0.08,45.01
14,-0.03,1.04,0.08,44.85
14,0.04,1.02,0.10,47.20
14,0.04,0.98,0.16,46.66
14,0.00,0.98,0.16,46.02
14,-0.09,0.99,0.17,46.02
14,-0.11,0.98,0.11,39.71
14,-0.11,0.98,0.08,40.48
14,-0.06,1.02,0.08,40.48
14,0.03,1.03,0.09,45.16
14,0.03,1.03,0.14,43.62
14,0.03,0.98,0.14,43.62
14,-0.06,0.98,0.16,42.20
14,-0.06,0.98,0.13,42.84
14,-0.12,0.98,0.13,45.30
14,-0.08,1.01,0.09,45.30
14,-0.08,1.03,0.09,47.14
14,0.02,1.03,0.07,46.26
14,0.04,0.99,0.13,46.26
14,0.03,0.98,0.16,41.00
14,-0.03,0.98,0.13,40.04
14,-0.12,0.99,0.13,40.04
14,-0.10,0.99,0.10,45.08
14,-0.10,0.98,0.08,46.74
14,-0.00,1.04,0.08,46.62
14,0.05,1.00,0.12,45.05
14,0.05,0.98,0.16,43.02
14,-0.01,0.98,0.16,43.54
14,-0.11,0.98,0.14,43.54
14,-0.11,0.98,0.11,49.02
14,-0.11,0.98,0.08,51.58
14,-0.03,1.03,0.08,51.58
14,0.04,1.01,0.10,43.82
14,0.04,1.01,0.18,47.40
14,0.01,0.98,0.18,47.56
14,-0.09,1.00,0.15,41.29
14,-0.09,0.98,0.12,47.23
14,-0.11,0.98,0.12,45.88
14,-0.04,1.03,0.08,45.88
14,-0.04,1.02,0.09,44.09
14,0.04,1.02,0.08,40.13
14,0.02,0.98,0.14,40.13
14,-0.08,0.98,0.17,44.19
14,-0.08,0.98,0.12,43.67
14,-0.11,0.99,0.12,43.67
14,-0.07,1.02,0.08,43.64
14,-0.07,1.03,0.08,43.97
14,0.02,1.03,0.08,44.21
14,0.04,0.98,0.14,39.51
14,0.04,0.98,0.16,44.64
14,-0.05,0.98,0.16,41.85
14,-0.11,0.99,0.13,41.85
14,-0.09,1.00,0.09,39.53
14,-0.09,1.00,0.09,45.41
14,-0.00,1.04,0.09,45.41
14,0.05,1.00,0.11,41.81
14,0.05,1.04,0.17,41.91
14,-0.02,0.97,0.17,41.68
14,-0.10,0.98,0.14,40.90
14,-0.10,0.98,0.10,44.24
14,-0.11,0.98,0.10,44.48
14,-0.02,1.03,0.08,44.48
14,-0.01,1.02,0.11,46.08
14,0.06,1.02,0.09,44.78
14,0.00,0.98,0.16,44.78
14,-0.09,0.99,0.16,41.18
14,-0.09,0.99,0.11,52.31
14,-0.12,0.98,0.11,52.31
14,-0.04,1.03,0.09,52.74
14,-0.04,1.02,0.10,40.90
14,0.04,1.02,0.10,36.55
14,0.02,0.98,0.15,36.55
14,0.02,0.98,0.16,45.90
14,-0.08,0.98,0.18,50.17
14,-0.12,0.98,0.12,50.17
14,-0.06,1.02,0.10,47.87
14,-0.06,1.02,0.09,40.60
14,0.04,1.03,0.09,40.60
14,0.02,0.99,0.13,42.07
14,0.02,0.98,0.17,50.20
14,-0.05,0.98,0.17,50.24
14,-0.12,0.99,0.12,43.19
14,-0.12,1.00,0.08,44.46
14,-0.09,1.00,0.08,42.31
14,0.01,1.04,0.09,42.31
14,0.04,0.99,0.12,44.26
14,0.04,0.99,0.11,45.62
14,-0.03,0.98,0.17,45.62
14,-0.11,0.99,0.13,38.35
15,-0.11,0.97,0.11,42.41
15,-0.04,1.04,0.09,40.36
15,-0.04,1.01,0.11,48.43
15,0.04,1.01,0.11,48.15
15,0.02,0.98,0.16,40.31
15,0.02,0.99,0.16,42.15
15,-0.09,0.99,0.16,47.22
15,-0.12,0.98,0.12,47.22
15,-0.07,1.02,0.08,49.81
15,-0.07,1.02,0.09,41.75
15,0.02,1.03,0.09,41.75
15,0.03,0.99,0.14,45.24
15,0.03,0.99,0.17,44.64
15,-0.06,0.98,0.17,44.99
15,-0.12,0.99,0.12,44.21
15,-0.12,0.94,0.10,43.08
15,-0.09,1.01,0.10,40.62
15,0.01,1.03,0.09,40.62
15,0.01,1.00,0.13,44.53
15,0.05,1.00,0.17,43.15
15,-0.04,0.97,0.17,43.15
15,-0.11,0.99,0.13,46.83
15,-0.11,0.99,0.09,40.21
15,-0.09,0.99,0.09,40.21
15,-0.01,1.04,0.08,42.80
15,-0.01,1.00,0.13,43.41
15,0.04,1.00,0.13,43.71
15,-0.02,0.97,0.16,37.45
15,-0.02,0.99,0.13,51.36
15,-0.11,0.99,0.13,41.20
15,-0.10,0.99,0.11,41.20
15,-0.09,1.03,0.07,41.14
15,-0.03,1.03,0.10,41.59
15,0.05,1.02,0.10,41.59
15,0.01,0.98,0.17,41.20
15,0.01,1.00,0.16,42.84
15,-0.08,1.00,0.16,42.37
15,-0.12,0.98,0.11,46.28
15,-0.12,1.03,0.08,44.95
15,-0.05,1.03,0.08,40.78
15,0.03,1.03,0.10,40.78
15,0.03,0.98,0.15,45.75
15,0.03,0.98,0.16,43.87
15,-0.07,0.99,0.16,43.87
15,-0.12,0.98,0.13,44.64
15,-0.12,0.98,0.09,44.85
15,-0.07,1.02,0.09,44.85
15,0.02,1.03,0.08,43.50
15,0.02,1.05,0.13,40.02
15,0.04,0.99,0.13,47.26
15,-0.04,0.97,0.17,47.26
15,-0.04,1.00,0.13,45.62
15,-0.12,1.00,0.15,43.74
15,-0.09,1.00,0.09,43.74
15,-0.07,1.04,0.09,42.90
15,-0.01,1.04,0.12,43.36
15,0.04,1.01,0.12,43.36
15,-0.02,0.98,0.17,42.71
15,-0.02,0.99,0.15,42.09
15,-0.11,0.99,0.15,41.67
15,-0.11,0.99,0.11,40.89
15,-0.11,1.03,0.08,43.40
15,-0.02,1.03,0.08,42.63
15,0.05,1.01,0.11,42.63
15,0.00,0.99,0.15,41.79
15,0.00,0.99,0.16,44.82
15,-0.10,0.99,0.16,44.82
15,-0.11,0.98,0.10,49.08
15,-0.11,0.98,0.08,42.26
15,-0.05,1.02,0.08,42.68
15,0.03,1.02,0.10,43.47
15,0.03,0.99,0.16,44.70
15,0.02,0.99,0.16,42.37
15,-0.07,0.99,0.16,42.37
15,-0.11,0.98,0.12,40.97
15,-0.11,0.98,0.09,41.70
15,-0.07,1.02,0.09,41.70
15,0.02,1.03,0.10,41.04
15,0.02,1.03,0.14,41.95
15,0.04,0.99,0.14,42.02
15,-0.05,0.98,0.17,42.02
15,-0.05,0.99,0.14,42.59
15,-0.11,0.99,0.14,41.00
15,-0.10,1.00,0.10,41.00
15,-0.10,1.03,0.08,50.14
15,0.00,1.03,0.07,41.60
15,0.04,1.00,0.13,41.60
15,0.04,0.98,0.18,47.68
15,-0.03,0.98,0.14,40.27
15,-0.11,0.99,0.14,40.27
15,-0.10,1.00,0.10,41.75
15,-0.10,0.97,0.08,45.61
15,-0.03,1.04,0.08,46.02
15,0.05,1.01,0.13,44.45
15,0.05,0.98,0.16,47.77
15,-0.00,0.98,0.16,48.66
15,-0.10,0.98,0.14,48.66
15,-0.11,0.98,0.11,41.90
15,-0.11,0.98,0.09,45.81
15,-0.04,1.02,0.09,45.81
15,0.04,1.01,0.11,38.52
15,0.04,1.01,0.16,34.86
15,0.02,0.99,0.16,34.89
15,-0.08,0.99,0.16,44.29
15,-0.08,0.98,0.12,45.15
15,-0.11,0.98,0.12,44.45
15,-0.07,1.01,0.09,44.45
15,-0.10,1.03,0.09,40.96
15,0.03,1.03,0.07,37.49
15,0.03,0.99,0.13,37.49
15,-0.06,0.98,0.16,43.96
15,-0.06,0.98,0.12,43.66
15,-0.11,0.98,0.12,43.20
15,-0.09,1.00,0.09,47.90
15,-0.09,1.03,0.09,49.32
15,0.00,1.03,0.09,50.07
15,0.05,0.99,0.12,50.07
15,0.05,0.98,0.17,42.66
15,-0.03,0.98,0.13,41.57
15,-0.11,0.99,0.13,41.57
15,-0.10,0.98,0.10,41.87
15,-0.10,0.98,0.09,45.01
15,-0.02,1.03,0.09,45.01
15,0.05,1.01,0.12,49.05
15,0.05,1.05,0.16,47.39
15,-0.01,0.98,0.16,46.97
15,-0.10,0.99,0.15,41.48
15,-0.10,0.98,0.11,45.85
15,-0.10,0.98,0.11,39.17
15,-0.04,1.04,0.08,39.17
15,-0.02,1.02,0.11,42.68
15,0.04,1.02,0.09,41.85
15,0.01,0.98,0.16,41.85
15,-0.08,0.99,0.16,46.16
15,-0.08,0.99,0.12,43.42
15,-0.11,0.98,0.12,43.41
15,-0.05,1.02,0.09,44.20
15,-0.05,1.02,0.10,43.66
15,0.03,1.02,0.10,41.11
15,0.02,0.99,0.15,41.11
15,0.00,0.98,0.18,43.92
15,-0.06,0.98,0.13,41.05
15,-0.12,0.99,0.13,41.05
15,-0.08,1.01,0.09,42.25
15,-0.08,1.01,0.09,39.16
15,0.02,1.04,0.09,39.16
15,0.04,1.00,0.13,44.70
15,0.04,0.98,0.17,43.03
15,-0.04,0.98,0.17,43.36
15,-0.11,0.99,0.14,48.85
15,-0.11,0.99,0.10,46.06
15,-0.09,0.99,0.10,44.91
15,-0.01,1.03,0.09,44.91
15,-0.02,1.00,0.12,43.13
15,0.05,1.00,0.09,41.58
15,-0.02,0.98,0.16,41.58
15,-0.10,0.99,0.15,40.30
15,-0.10,0.99,0.11,49.64
15,-0.11,0.99,0.11,49.81
15,-0.03,1.04,0.08,46.67
15,-0.03,1.01,0.11,43.89
15,0.05,1.01,0.11,44.45
15,0.00,0.98,0.16,44.45
15,0.03,0.98,0.16,41.37
15,-0.09,0.98,0.18,43.79
15,-0.11,0.98,0.12,43.79
15,-0.05,1.03,0.09,41.63
15,-0.05,1.03,0.09,52.34
15,0.04,1.02,0.09,52.24
15,0.02,0.99,0.15,42.84
15,0.02,0.98,0.16,44.28
15,-0.07,0.98,0.16,46.68
15,-0.12,0.98,0.12,46.68
15,-0.12,1.01,0.08,44.98
15,-0.07,1.01,0.09,46.04
15,0.01,1.03,0.09,46.04
15,0.04,0.99,0.13,40.36
15,0.04,0.99,0.16,43.34
15,-0.04,0.97,0.16,43.34
15,-0.11,0.99,0.13,45.47
15,-0.11,1.00,0.09,45.99
15,-0.08,1.00,0.09,45.95
15,-0.01,1.03,0.08,38.90
15,-0.01,1.00,0.13,39.65
15,0.05,1.00,0.13,47.27
15,-0.03,0.98,0.16,47.27
15,-0.03,0.99,0.14,42.20
15,-0.09,0.99,0.17,44.92
15,-0.10,0.99,0.10,44.92
15,-0.03,1.04,0.08,43.50
15,-0.03,1.04,0.11,45.97
15,0.04,1.02,0.11,45.65
15,-0.00,0.98,0.17,44.09
15,-0.00,0.99,0.15,44.06
15,-0.09,0.99,0.15,49.70
15,-0.11,0.98,0.11,49.70
15,-0.11,1.03,0.09,45.29
15,-0.04,1.03,0.10,41.14
15,0.04,1.02,0.10,41.14
15,0.02,0.99,0.15,43.92
15,0.02,0.99,0.17,40.38
15,-0.07,0.98,0.17,40.38
15,-0.12,0.98,0.13,47.11
15,-0.12,0.94,0.08,42.71
15,-0.07,1.01,0.08,42.26
15,0.02,1.02,0.09,52.44
15,0.02,0.99,0.15,45.46
15,0.03,0.99,0.16,41.70
15,-0.05,0.98,0.16,41.70
15,-0.06,0.98,0.13,40.92
15,-0.12,0.98,0.10,41.72
15,-0.08,1.01,0.10,41.72
15,0.00,1.03,0.09,42.53
15,0.00,1.00,0.12,43.92
15,0.04,1.00,0.12,44.50
15,-0.02,0.98,0.17,41.36
15,-0.02,0.99,0.14,45.09
15,-0.11,0.99,0.14,45.42
15,-0.10,0.99,0.10,45.42
15,-0.08,1.03,0.09,44.62
15,-0.02,1.03,0.12,48.09
15,0.04,1.00,0.12,48.09
15,0.00,0.97,0.15,43.40
15,0.00,0.97,0.15,45.32
15,-0.09,0.99,0.15,45.25
15,-0.11,0.99,0.11,45.25
15,-0.11,0.97,0.09,42.36
15,-0.04,1.04,0.09,40.64
15,0.04,1.03,0.11,40.64
15,0.04,0.99,0.15,41.91
15,0.02,0.99,0.16,43.98
15,-0.08,0.98,0.16,43.98
15,-0.11,0.98,0.12,44.11
16,-0.09,1.00,0.09,48.45
16,0.01,1.03,0.09,50.88
16,0.01,1.06,0.12,43.75
16,0.04,0.99,0.12,43.39
16,-0.04,0.98,0.16,42.61
16,-0.04,0.98,0.14,44.94
16,-0.11,0.98,0.14,41.72
16,-0.09,0.99,0.10,41.72
16,-0.08,1.03,0.08,42.46
16,-0.01,1.03,0.12,41.14
16,0.05,1.02,0.12,41.14
16,-0.00,0.98,0.17,43.40
16,-0.00,0.98,0.15,42.09
16,-0.10,0.98,0.15,41.91
16,-0.10,0.99,0.11,39.56
16,-0.10,0.97,0.09,43.91
16,-0.04,1.03,0.09,40.24
16,0.04,1.02,0.10,40.24
16,0.04,0.98,0.17,48.48
16,0.00,0.98,0.14,45.04
16,-0.08,0.99,0.14,45.04
16,-0.12,0.99,0.11,40.14
16,-0.12,0.99,0.08,45.02
16,-0.06,1.02,0.08,45.02
16,0.02,1.03,0.10,47.25
16,0.02,1.05,0.15,41.66
16,0.03,0.99,0.15,41.80
16,-0.06,0.99,0.16,45.71
16,-0.06,0.98,0.12,41.70
16,-0.12,0.98,0.12,52.17
16,-0.07,1.01,0.08,52.17
16,-0.11,1.03,0.09,43.44
16,0.01,1.03,0.13,45.24
16,0.04,1.00,0.13,45.24
16,-0.04,0.99,0.16,37.09
16,-0.04,0.99,0.14,44.86
16,-0.11,0.99,0.14,45.25
16,-0.09,1.00,0.10,46.04
16,-0.09,1.04,0.09,41.51
16,-0.01,1.04,0.09,43.10
16,0.03,1.00,0.12,43.10
16,0.05,0.98,0.17,46.36
16,-0.02,0.98,0.13,51.83
16,-0.10,0.98,0.13,51.83
16,-0.10,0.99,0.11,42.64
16,-0.10,0.99,0.08,43.06
16,-0.03,1.03,0.08,43.58
16,0.04,1.01,0.11,45.93
16,0.04,1.04,0.16,41.41
16,0.01,0.98,0.16,47.62
16,-0.08,0.99,0.15,47.62
16,-0.08,0.98,0.11,45.72
16,-0.11,0.98,0.08,40.14
16,-0.06,1.02,0.08,40.14
16,-0.03,1.03,0.10,50.49
16,0.03,1.03,0.14,48.64
16,0.03,0.99,0.14,48.64
16,-0.06,0.98,0.17,43.18
16,-0.06,0.99,0.13,41.38
16,-0.10,0.99,0.13,41.31
16,-0.07,1.02,0.10,40.53
16,-0.07,1.03,0.09,38.88
16,0.02,1.03,0.09,48.37
16,0.03,1.00,0.14,48.37
16,0.02,0.99,0.16,43.63
16,-0.04,0.99,0.13,40.27
16,-0.11,0.98,0.13,40.27
16,-0.08,1.00,0.08,47.65
16,-0.08,1.00,0.09,43.92
16,-0.00,1.04,0.09,44.06
16,0.03,1.01,0.12,45.62
16,0.03,0.98,0.17,45.26
16,-0.02,0.98,0.17,38.61
16,-0.11,0.99,0.15,38.61
16,-0.10,0.99,0.11,42.15
16,-0.10,0.99,0.08,46.92
16,-0.02,1.04,0.08,46.92
16,0.04,1.01,0.12,49.32
16,0.04,1.01,0.17,37.92
16,-0.01,0.98,0.17,37.92
16,-0.09,0.98,0.14,40.64
16,-0.09,0.99,0.11,39.72
16,-0.11,0.99,0.11,41.62
16,-0.05,1.03,0.08,41.62
16,-0.05,1.02,0.10,46.82
16,0.04,1.02,0.09,44.90
16,0.03,0.99,0.15,44.90
16,0.05,0.99,0.16,46.85
16,-0.07,0.99,0.13,43.55
16,-0.11,0.98,0.13,43.55
16,-0.06,1.02,0.10,43.50
16,-0.06,1.02,0.10,43.76
16,0.01,1.02,0.10,43.61
16,0.03,0.99,0.13,38.91
16,0.03,0.98,0.15,46.43
16,-0.05,0.98,0.15,42.94
16,-0.11,0.99,0.13,42.94
16,-0.08,1.00,0.09,43.68
16,-0.08,1.00,0.09,39.34
16,0.00,1.03,0.09,39.34
16,0.03,1.00,0.13,45.58
16,0.03,1.00,0.16,51.58
16,-0.02,0.98,0.16,51.48
16,-0.10,0.99,0.14,40.52
16,-0.10,0.99,0.09,40.65
16,-0.10,0.99,0.09,44.59
16,-0.02,1.04,0.08,44.59
16,-0.02,1.01,0.11,38.81
16,0.04,1.01,0.10,39.77
16,-0.01,0.97,0.17,39.77
16,-0.10,0.99,0.14,44.45
16,-0.10,0.99,0.10,43.77
16,-0.11,0.99,0.10,43.77
16,-0.04,1.03,0.08,54.21
16,-0.04,1.01,0.10,40.34
16,0.03,1.01,0.10,40.35
16,0.01,0.98,0.15,49.75
16,0.01,0.99,0.15,39.96
16,-0.07,0.99,0.13,42.93
16,-0.11,0.98,0.13,42.93
16,-0.12,1.02,0.09,44.32
16,-0.06,1.02,0.09,42.32
16,0.03,1.02,0.09,42.32
16,0.04,0.99,0.14,43.72
16,0.04,0.98,0.16,45.33
16,-0.06,0.98,0.16,44.95
16,-0.11,0.98,0.12,39.46
16,-0.11,1.01,0.09,46.75
16,-0.08,1.01,0.09,53.52
16,-0.00,1.02,0.10,53.52
16,-0.02,0.99,0.13,40.50
16,0.04,0.99,0.16,46.61
16,-0.04,0.98,0.16,46.61
16,-0.11,0.98,0.14,45.99
16,-0.11,0.98,0.09,38.34
16,-0.09,0.99,0.09,38.87
16,-0.02,1.04,0.09,42.78
16,-0.02,1.02,0.12,36.03
16,0.04,1.02,0.12,45.37
16,-0.01,0.99,0.16,45.37
16,-0.01,0.99,0.14,39.98
16,-0.10,0.99,0.17,45.68
16,-0.10,0.99,0.11,45.68
16,-0.10,1.03,0.08,41.02
16,-0.04,1.03,0.12,41.98
16,0.04,1.01,0.12,41.98
16,0.02,0.98,0.15,43.72
16,0.02,0.99,0.16,43.40
16,-0.09,0.99,0.16,43.46
16,-0.11,0.98,0.12,41.11
16,-0.11,1.02,0.10,46.45
16,-0.06,1.02,0.10,41.16
16,0.02,1.02,0.10,41.16
16,0.03,0.99,0.14,43.93
16,0.03,0.99,0.16,44.57
16,-0.06,0.99,0.16,44.57
16,-0.12,0.98,0.12,43.08
16,-0.12,0.98,0.09,43.77
16,-0.08,1.01,0.09,43.49
16,0.01,1.02,0.09,48.97
16,0.01,1.00,0.14,39.89
16,0.04,1.00,0.14,39.80
16,-0.04,0.98,0.16,39.80
16,-0.05,0.98,0.14,45.71
16,-0.11,0.98,0.16,42.04
16,-0.09,1.00,0.10,42.04
16,-0.01,1.04,0.09,40.57
16,-0.01,1.04,0.12,45.49
16,0.04,1.01,0.12,45.49
16,-0.02,0.98,0.17,42.38
16,-0.02,0.99,0.14,48.87
16,-0.10,0.99,0.14,44.01
16,-0.10,0.99,0.10,44.01
16,-0.10,1.03,0.10,45.82
16,-0.04,1.03,0.11,53.24
16,0.04,1.01,0.11,53.24
16,0.01,0.98,0.17,47.85
16,0.01,0.98,0.15,42.96
16,-0.09,0.99,0.15,42.96
16,-0.10,0.98,0.11,41.79
16,-0.10,0.96,0.08,44.38
16,-0.05,1.02,0.08,44.10
16,0.04,1.02,0.11,47.24
16,0.04,0.99,0.16,38.29
16,0.02,0.99,0.16,40.51
16,-0.08,0.99,0.16,40.51
16,-0.12,0.99,0.12,51.43
16,-0.12,0.99,0.09,43.38
16,-0.06,1.01,0.09,43.38
16,0.01,1.03,0.10,35.95
16,0.01,1.03,0.14,43.23
16,0.03,0.99,0.14,43.41
16,-0.04,0.98,0.16,45.76
16,-0.04,0.99,0.13,42.95
16,-0.11,0.99,0.13,41.29
16,-0.09,1.01,0.10,41.29
16,-0.07,1.03,0.08,40.80
16,-0.00,1.03,0.12,40.97
16,0.04,1.01,0.12,40.97
16,-0.02,0.98,0.17,44.82
16,-0.02,0.98,0.14,41.99
16,-0.10,0.99,0.14,41.99
16,-0.10,0.99,0.10,40.95
16,-0.10,0.97,0.08,45.45
16,-0.03,1.03,0.08,45.84
16,0.05,1.01,0.11,44.28
16,0.05,0.97,0.16,42.71
16,-0.01,0.97,0.14,42.63
16,-0.09,0.99,0.14,42.63
16,-0.11,0.99,0.11,44.05
16,-0.11,0.99,0.08,38.59
16,-0.04,1.02,0.08,38.59
16,0.03,1.01,0.11,42.88
16,0.03,1.05,0.15,42.98
16,0.02,0.99,0.15,42.72
16,-0.07,0.99,0.15,41.16
16,-0.07,0.99,0.12,42.45
16,-0.10,0.99,0.12,44.07
16,-0.06,1.02,0.09,44.07
16,-0.11,1.03,0.11,38.97
16,0.01,1.03,0.08,40.43
16,0.03,0.99,0.14,40.43
16,-0.05,0.98,0.17,45.04
16,-0.05,0.98,0.13,41.87
16,-0.12,0.99,0.13,42.10
16,-0.09,1.01,0.09,46.80
16,-0.09,1.02,0.09,43.94
16,-0.01,1.02,0.09,44.27
16,0.04,0.99,0.13,44.27
16,0.04,0.97,0.16,45.00
16,-0.02,0.97,0.14,49.07
16,-0.10,0.99,0.14,49.07
16,-0.10,0.99,0.09,48.96
17,-0.05,1.03,0.09,45.03
17,0.04,1.02,0.11,43.24
17,0.04,1.02,0.15,46.83
17,0.01,0.98,0.15,46.74
17,-0.08,0.98,0.15,43.60
17,-0.08,0.98,0.12,44.37
17,-0.10,0.98,0.12,43.84
17,-0.06,1.02,0.08,43.84
17,-0.04,1.03,0.10,41.03
17,0.03,1.03,0.08,41.92
17,0.03,1.00,0.14,41.92
17,-0.05,0.98,0.16,48.50
17,-0.05,0.98,0.13,47.88
17,-0.12,0.99,0.13,47.88
17,-0.08,1.01,0.09,42.18
17,-0.08,1.03,0.09,41.12
17,0.00,1.03,0.09,45.40
17,0.03,1.00,0.14,45.40
17,0.03,0.98,0.16,46.31
17,-0.04,0.98,0.13,44.28
17,-0.11,0.99,0.13,44.28
17,-0.09,1.00,0.09,45.96
17,-0.09,1.00,0.09,42.84
17,-0.02,1.02,0.09,42.84
17,0.04,1.00,0.13,37.51
17,0.04,1.04,0.16,45.76
17,-0.01,0.98,0.16,45.65
17,-0.09,0.99,0.14,44.08
17,-0.09,0.99,0.10,45.12
17,-0.10,0.99,0.10,46.32
17,-0.04,1.03,0.10,46.32
17,-0.03,1.01,0.12,46.73
17,0.03,1.01,0.09,41.67
17,0.01,0.99,0.15,41.67
17,-0.09,0.98,0.15,40.78
17,-0.09,0.98,0.11,41.52
17,-0.11,0.98,0.11,41.77
17,-0.06,1.03,0.08,40.21
17,-0.06,1.03,0.10,45.30
17,0.03,1.03,0.10,46.25
17,0.02,0.98,0.14,46.25
17,0.02,0.98,0.15,45.95
17,-0.06,0.98,0.18,46.57
17,-0.12,0.98,0.12,46.57
17,-0.08,1.01,0.09,47.32
17,-0.08,1.01,0.09,37.90
17,0.01,1.02,0.09,37.90
17,0.04,0.99,0.13,45.95
17,0.04,0.98,0.16,48.21
17,-0.03,0.98,0.16,47.97
17,-0.11,0.99,0.13,44.84
17,-0.11,1.01,0.09,41.85
17,-0.09,1.01,0.09,46.20
17,-0.01,1.02,0.10,46.20
17,-0.03,1.00,0.13,46.18
17,0.03,1.00,0.17,45.63
17,-0.01,0.98,0.17,45.63
17,-0.10,1.00,0.14,49.36
17,-0.10,0.99,0.11,41.03
17,-0.10,0.99,0.11,40.95
17,-0.03,1.03,0.09,40.95
17,-0.03,1.01,0.11,46.69
17,0.05,1.01,0.11,45.43
17,0.00,0.98,0.17,45.43
17,0.04,1.00,0.13,48.34
17,-0.08,1.00,0.16,46.14
17,-0.10,0.98,0.10,46.14
17,-0.05,1.02,0.09,43.06
17,-0.05,1.02,0.10,45.14
17,0.03,1.02,0.10,45.30
17,0.01,0.99,0.16,44.51
17,0.01,0.99,0.15,42.18
17,-0.07,0.99,0.15,44.03
17,-0.12,0.98,0.12,44.03
17,-0.12,1.01,0.08,43.78
17,-0.06,1.01,0.09,42.82
17,0.01,1.03,0.09,42.82
17,0.03,0.99,0.15,49.31
17,0.03,0.99,0.16,39.78
17,-0.04,0.99,0.16,39.78
17,-0.12,0.98,0.13,42.49
17,-0.12,0.94,0.09,45.83
17,-0.08,1.00,0.09,45.47
17,0.00,1.02,0.09,48.60
17,0.00,1.00,0.12,46.66
17,0.03,1.00,0.12,51.58
17,-0.02,0.98,0.16,51.58
17,-0.04,0.99,0.14,47.27
17,-0.10,0.99,0.16,41.59
17,-0.10,0.99,0.10,41.59
17,-0.02,1.03,0.09,41.62
17,-0.02,1.03,0.11,43.24
17,0.04,1.01,0.11,43.74
17,0.00,0.98,0.16,50.01
17,0.00,0.98,0.14,44.32
17,-0.08,0.98,0.14,48.22
17,-0.10,0.99,0.12,48.22
17,-0.11,1.02,0.09,43.18
17,-0.05,1.02,0.11,47.07
17,0.03,1.02,0.11,47.07
17,0.02,0.99,0.15,41.62
17,0.02,0.99,0.15,41.82
17,-0.07,0.99,0.15,41.82
17,-0.12,0.98,0.12,41.19
17,-0.12,0.96,0.08,45.09
17,-0.06,1.03,0.08,44.86
17,0.03,1.03,0.10,47.21
17,0.03,0.99,0.15,44.23
17,0.02,0.99,0.15,48.00
17,-0.05,0.98,0.15,48.00
17,-0.05,0.98,0.12,40.79
17,-0.11,0.98,0.10,44.26
17,-0.08,1.00,0.10,44.26
17,0.01,1.02,0.10,46.01
17,0.01,1.01,0.13,39.98
17,0.03,1.01,0.13,40.30
17,-0.03,0.97,0.16,39.52
17,-0.03,0.99,0.14,43.70
17,-0.10,0.99,0.14,43.02
17,-0.09,1.00,0.11,43.02
17,-0.07,1.03,0.09,44.80
17,-0.01,1.03,0.07,43.85
17,0.04,1.00,0.13,43.85
17,-0.01,0.97,0.16,48.22
17,-0.01,0.97,0.13,45.14
17,-0.09,0.98,0.13,44.77
17,-0.10,1.00,0.11,48.68
17,-0.10,0.97,0.09,46.75
17,-0.04,1.03,0.09,49.40
17,0.04,1.01,0.11,49.40
17,0.04,0.98,0.15,44.11
17,0.01,0.98,0.14,39.62
17,-0.08,0.98,0.14,39.62
17,-0.11,0.99,0.11,39.87
17,-0.11,0.99,0.09,44.04
17,-0.06,1.03,0.09,44.04
17,0.03,1.02,0.10,45.54
17,0.03,1.05,0.14,44.17
17,0.02,0.99,0.14,43.96
17,-0.05,0.99,0.16,43.18
17,-0.05,0.98,0.13,46.69
17,-0.11,0.98,0.13,47.17
17,-0.08,1.00,0.09,47.17
17,-0.11,1.02,0.10,44.95
17,0.02,1.02,0.08,45.24
17,0.03,0.99,0.14,45.24
17,-0.04,0.99,0.16,43.74
17,-0.04,0.99,0.14,40.20
17,-0.11,0.99,0.14,40.52
17,-0.09,1.00,0.10,44.43
17,-0.09,0.97,0.09,40.66
17,-0.00,1.03,0.09,42.63
17,0.04,1.02,0.12,42.63
17,0.04,0.99,0.16,42.92
17,-0.01,0.99,0.13,49.04
17,-0.09,0.99,0.13,49.04
17,-0.10,0.99,0.10,39.55
17,-0.10,0.99,0.09,44.37
17,-0.04,1.03,0.09,44.37
17,0.04,1.01,0.11,44.67
17,0.04,1.05,0.16,42.62
17,0.01,0.98,0.16,42.83
17,-0.08,0.99,0.14,38.13
17,-0.08,0.99,0.11,40.42
17,-0.11,0.99,0.11,44.38
17,-0.06,1.02,0.09,44.38
17,-0.04,1.02,0.10,46.62
17,0.03,1.02,0.15,49.94
17,0.03,0.98,0.15,49.94
17,-0.06,0.99,0.15,43.71
17,-0.06,0.99,0.13,42.80
17,-0.11,0.99,0.13,42.70
17,-0.07,1.02,0.08,43.48
17,-0.07,1.03,0.09,39.84
17,0.02,1.03,0.09,41.99
17,0.04,0.99,0.14,41.99
17,0.02,0.99,0.15,39.78
17,-0.04,0.99,0.13,39.13
17,-0.11,0.99,0.13,39.13
17,-0.08,1.01,0.09,49.24
17,-0.08,1.01,0.09,42.61
17,-0.01,1.03,0.09,42.67
17,0.04,1.00,0.12,40.32
17,0.04,1.04,0.16,41.01
17,-0.01,0.98,0.16,43.46
17,-0.10,0.98,0.14,43.46
17,-0.10,0.99,0.09,47.33
17,-0.10,0.99,0.10,43.79
17,-0.03,1.02,0.10,43.79
17,-0.01,1.01,0.12,40.32
17,0.05,1.01,0.15,43.62
17,0.00,0.99,0.15,43.62
17,-0.09,0.99,0.14,44.56
17,-0.09,0.98,0.11,38.47
17,-0.11,0.98,0.11,39.06
17,-0.05,1.02,0.09,39.85
17,-0.05,1.01,0.10,46.76
17,0.03,1.01,0.10,42.81
17,0.02,0.99,0.15,42.81
17,0.06,0.98,0.16,48.08
17,-0.07,0.98,0.18,42.13
17,-0.12,0.98,0.12,42.13
17,-0.07,1.01,0.10,44.82
17,-0.07,1.01,0.10,48.28
17,0.01,1.02,0.10,48.22
17,0.03,0.99,0.15,41.95
17,0.03,0.98,0.17,39.45
17,-0.04,0.98,0.17,49.16
17,-0.11,0.99,0.13,49.16
17,-0.11,1.01,0.10,46.05
17,-0.09,1.01,0.09,46.41
17,-0.00,1.02,0.09,46.41
17,0.03,1.00,0.13,45.64
17,0.03,1.00,0.15,45.11
17,-0.03,0.98,0.15,45.11
17,-0.10,0.99,0.14,41.87
17,-0.10,0.99,0.11,44.30
17,-0.10,0.99,0.11,44.42
17,-0.03,1.03,0.09,45.99
17,-0.03,1.01,0.12,47.60
17,0.04,1.01,0.12,46.93
17,-0.01,0.99,0.16,46.93
17,-0.02,0.99,0.14,39.10
17,-0.09,0.99,0.17,43.86
17,-0.11,0.99,0.11,43.86
17,-0.05,1.02,0.09,51.03
17,-0.05,1.02,0.11,42.25
17,0.04,1.02,0.11,42.30
17,0.01,0.98,0.16,41.52
17,0.01,0.99,0.15,44.94
17,-0.07,0.99,0.15,48.61
17,-0.11,0.98,0.12,48.61
17,-0.07,1.02,0.10,41.91
18,0.00,1.02,0.09,42.45
18,0.03,1.00,0.14,44.36
18,0.03,1.00,0.16,48.21
18,-0.03,0.98,0.16,48.21
18,-0.11,0.99,0.14,42.56
18,-0.11,0.99,0.09,39.45
18,-0.10,0.99,0.09,39.78
18,-0.02,1.02,0.09,41.35
18,-0.02,1.00,0.12,46.97
18,0.03,1.00,0.10,46.62
18,-0.01,0.98,0.16,46.62
18,-0.03,0.98,0.14,50.79
18,-0.09,0.98,0.10,40.30
18,-0.09,0.99,0.10,40.30
18,-0.04,1.02,0.09,41.49
18,-0.04,1.01,0.12,38.94
18,0.03,1.01,0.12,39.00
18,0.01,0.98,0.16,54.67
18,0.01,0.98,0.14,46.87
18,-0.08,0.98,0.14,45.83
18,-0.10,0.99,0.11,45.83
18,-0.06,1.02,0.09,52.60
18,-0.06,1.02,0.11,43.94
18,0.03,1.01,0.11,43.94
18,0.03,0.99,0.14,45.36
18,0.03,0.99,0.16,40.90
18,-0.05,0.99,0.16,41.37
18,-0.11,0.98,0.12,42.15
18,-0.11,0.95,0.10,41.73
18,-0.08,1.01,0.10,48.99
18,0.01,1.03,0.09,48.99
18,0.01,1.00,0.13,46.40
18,0.03,1.00,0.16,40.33
18,-0.04,0.98,0.16,40.33
18,-0.05,0.99,0.13,47.05
18,-0.11,0.99,0.10,45.38
18,-0.09,1.00,0.10,45.38
18,-0.02,1.04,0.09,46.58
18,-0.02,1.01,0.12,41.48
18,0.03,1.01,0.12,42.05
18,-0.02,0.98,0.17,40.48
18,-0.02,0.99,0.14,49.38
18,-0.10,0.99,0.14,46.68
18,-0.10,0.99,0.10,46.68
18,-0.09,1.04,0.09,44.35
18,-0.03,1.04,0.12,47.50
18,0.04,1.01,0.12,47.50
18,0.01,0.98,0.16,39.64
18,0.01,0.98,0.14,45.54
18,-0.07,0.99,0.14,45.42
18,-0.10,0.99,0.11,45.42
18,-0.10,1.02,0.09,41.82
18,-0.06,1.02,0.09,47.03
18,0.02,1.03,0.11,47.03
18,0.02,0.99,0.14,52.14
18,0.02,0.99,0.14,48.14
18,-0.06,0.99,0.14,48.14
18,-0.11,0.99,0.12,46.52
18,-0.11,0.99,0.09,43.43
18,-0.07,1.01,0.09,43.43
18,0.01,1.02,0.10,48.07
18,0.01,1.06,0.13,39.75
18,0.03,1.00,0.13,39.51
18,-0.03,0.98,0.15,43.43
18,-0.03,0.99,0.13,43.66
18,-0.11,0.99,0.17,47.34
18,-0.09,1.01,0.11,47.34
18,-0.07,1.02,0.10,44.27
18,-0.01,1.02,0.13,39.49
18,0.04,1.00,0.13,39.49
18,-0.02,0.99,0.17,38.94
18,-0.02,0.99,0.14,49.59
18,-0.10,0.99,0.14,49.69
18,-0.10,1.00,0.10,44.20
18,-0.10,1.03,0.09,43.31
18,-0.04,1.03,0.09,42.11
18,0.04,1.02,0.12,42.11
18,0.01,0.98,0.15,48.59
18,0.01,0.98,0.15,37.68
18,-0.09,0.98,0.15,37.68
18,-0.11,0.99,0.11,42.99
18,-0.11,0.99,0.09,43.99
18,-0.05,1.02,0.09,43.92
18,0.03,1.02,0.11,46.27
18,0.03,1.05,0.14,45.71
18,0.02,0.99,0.14,41.88
18,-0.07,0.99,0.15,41.88
18,-0.07,0.98,0.12,43.45
18,-0.11,0.98,0.08,46.16
18,-0.07,1.02,0.08,46.16
18,-0.11,1.03,0.11,44.51
18,0.02,1.03,0.14,40.91
18,0.02,0.99,0.14,40.91
18,-0.04,0.99,0.14,42.09
18,-0.04,0.99,0.12,38.64
18,-0.11,0.99,0.12,38.61
18,-0.08,1.01,0.10,40.96
18,-0.08,1.02,0.10,44.62
18,0.00,1.02,0.10,46.95
18,0.04,1.00,0.13,46.95
18,0.04,0.98,0.15,43.94
18,-0.02,0.98,0.14,42.05
18,-0.10,0.99,0.14,42.05
18,-0.09,0.99,0.10,42.76
18,-0.09,0.99,0.09,47.22
18,-0.03,1.03,0.09,47.53
18,0.04,1.01,0.12,45.97
18,0.04,1.04,0.15,38.97
18,0.00,0.97,0.15,39.43
18,-0.09,0.99,0.14,39.43
18,-0.11,0.99,0.11,44.94
18,-0.11,0.99,0.08,50.23
18,-0.04,1.03,0.08,50.23
18,0.03,1.01,0.12,52.69
18,0.03,1.01,0.14,45.53
18,0.01,0.99,0.14,45.53
18,-0.08,0.98,0.15,45.37
18,-0.08,0.98,0.12,43.46
18,-0.11,0.98,0.12,43.05
18,-0.07,1.02,0.09,46.97
18,-0.07,1.01,0.11,40.95
18,0.02,1.01,0.11,46.53
18,0.03,1.00,0.14,46.53
18,0.01,0.99,0.16,42.19
18,-0.05,0.99,0.12,37.53
18,-0.11,0.99,0.12,37.53
18,-0.08,1.01,0.08,42.45
18,-0.08,1.02,0.10,42.16
18,-0.00,1.02,0.10,41.46
18,0.03,1.00,0.13,39.89
18,0.03,0.99,0.15,38.75
18,-0.03,0.99,0.15,42.58
18,-0.10,0.99,0.13,42.58
18,-0.09,1.01,0.09,42.43
18,-0.09,1.01,0.10,47.21
18,-0.02,1.03,0.10,47.21
18,0.03,1.00,0.13,43.62
18,0.03,1.00,0.16,41.75
18,-0.00,0.98,0.16,41.47
18,-0.09,0.99,0.14,47.74
18,-0.09,0.99,0.10,35.40
18,-0.10,0.99,0.10,37.47
18,-0.04,1.03,0.08,37.47
18,-0.04,1.01,0.12,40.39
18,0.03,1.01,0.09,47.85
18,0.01,0.99,0.15,47.85
18,0.05,0.99,0.15,47.68
18,-0.07,0.99,0.11,43.83
18,-0.10,0.98,0.11,43.83
18,-0.06,1.02,0.09,40.89
18,-0.06,1.02,0.11,43.96
18,0.03,1.02,0.11,43.86
18,0.02,1.00,0.14,39.16
18,0.02,0.99,0.17,42.48
18,-0.06,0.99,0.17,42.80
18,-0.11,0.99,0.13,42.80
18,-0.07,1.01,0.09,45.89
18,-0.07,1.01,0.10,45.04
18,0.01,1.03,0.10,45.04
18,0.03,1.00,0.14,44.67
18,0.03,1.00,0.17,39.22
18,-0.03,0.99,0.17,39.68
18,-0.11,0.99,0.12,43.60
18,-0.11,0.94,0.10,43.40
18,-0.09,1.00,0.10,43.32
18,-0.01,1.02,0.09,43.32
18,-0.03,1.00,0.13,42.48
18,0.03,1.00,0.15,42.42
18,-0.01,0.98,0.15,42.42
18,-0.09,0.98,0.13,42.75
18,-0.09,0.98,0.10,40.48
18,-0.10,0.99,0.10,40.48
18,-0.04,1.03,0.09,50.12
18,-0.04,1.01,0.12,50.10
18,0.03,1.01,0.12,50.39
18,0.00,0.98,0.16,48.04
18,0.00,0.99,0.13,39.66
18,-0.08,0.99,0.13,45.29
18,-0.10,0.99,0.11,45.29
18,-0.11,1.02,0.09,48.90
18,-0.05,1.02,0.11,45.09
18,0.02,1.01,0.11,45.09
18,0.02,0.99,0.14,48.58
18,0.02,0.98,0.15,41.12
18,-0.06,0.98,0.15,40.68
18,-0.11,1.00,0.12,42.24
18,-0.11,1.01,0.09,47.14
18,-0.07,1.01,0.09,45.23
18,0.02,1.02,0.10,45.23
18,0.03,0.99,0.14,45.43
18,0.03,0.99,0.16,47.59
18,-0.04,0.98,0.16,47.59
18,-0.10,0.99,0.13,47.85
18,-0.10,0.99,0.10,47.17
18,-0.09,1.01,0.10,46.95
18,-0.01,1.02,0.10,45.38
18,-0.01,1.00,0.13,44.45
18,0.03,1.00,0.13,40.74
18,-0.02,0.99,0.16,40.74
18,-0.02,0.99,0.14,43.30
18,-0.10,0.99,0.16,47.37
18,-0.10,0.99,0.10,47.37
18,-0.09,1.02,0.10,41.82
18,-0.03,1.02,0.12,51.64
18,0.04,1.01,0.12,51.64
18,-0.00,0.98,0.16,42.12
18,-0.00,0.99,0.15,39.44
18,-0.09,0.99,0.15,39.64
18,-0.10,0.98,0.10,38.07
18,-0.10,1.02,0.08,50.31
18,-0.04,1.02,0.08,45.88
18,0.03,1.02,0.12,45.88
18,0.02,0.99,0.15,42.29
18,0.02,0.99,0.15,45.23
18,-0.07,0.99,0.15,45.23
18,-0.11,0.99,0.12,44.86
18,-0.11,0.99,0.08,43.62
18,-0.06,1.01,0.08,43.62
18,0.01,1.02,0.10,38.92
18,0.01,1.05,0.15,45.33
18,0.03,0.99,0.15,44.59
18,-0.06,0.99,0.16,44.59
18,-0.06,1.00,0.12,48.53
18,-0.11,1.00,0.09,44.38
18,-0.08,1.01,0.09,44.38
18,-0.01,1.02,0.10,47.31
18,-0.01,1.02,0.13,43.88
18,0.03,1.01,0.13,43.88
18,-0.03,0.98,0.17,45.56
18,-0.03,1.00,0.14,42.08
18,-0.09,1.00,0.14,41.53
18,-0.09,1.00,0.10,41.53
18,-0.09,1.03,0.09,41.23
19,0.03,1.01,0.12,41.51
19,0.01,0.99,0.15,50.70
19,0.01,0.99,0.14,43.32
19,-0.07,0.99,0.14,43.32
19,-0.12,0.98,0.11,41.20
19,-0.12,0.98,0.08,45.45
19,-0.07,1.02,0.08,45.96
19,0.02,1.02,0.11,42.04
19,0.02,1.06,0.14,47.90
19,0.02,1.00,0.14,41.57
19,-0.05,0.99,0.16,41.57
19,-0.05,0.99,0.13,41.61
19,-0.11,0.99,0.16,48.75
19,-0.08,1.01,0.10,48.75
19,-0.12,1.02,0.10,50.10
19,0.00,1.02,0.13,40.08
19,0.03,1.01,0.13,40.08
19,-0.02,0.98,0.14,45.96
19,-0.02,1.00,0.14,43.19
19,-0.11,1.00,0.14,43.30
19,-0.09,1.00,0.09,41.73
19,-0.09,1.02,0.10,45.63
19,-0.02,1.02,0.10,43.46
19,0.04,1.01,0.12,43.46
19,0.05,0.98,0.16,45.80
19,-0.01,0.98,0.14,43.36
19,-0.09,0.99,0.14,43.36
19,-0.10,0.99,0.11,42.90
19,-0.10,0.99,0.09,47.78
19,-0.03,1.02,0.09,48.20
19,0.03,1.01,0.12,43.50
19,0.03,0.99,0.16,48.47
19,0.01,0.99,0.16,42.91
19,-0.07,0.98,0.14,42.91
19,-0.10,0.99,0.11,40.71
19,-0.10,0.99,0.09,38.35
19,-0.05,1.02,0.09,38.35
19,0.02,1.02,0.12,41.10
19,0.02,1.02,0.14,42.84
19,0.02,0.98,0.14,42.84
19,-0.06,0.99,0.15,47.70
19,-0.06,0.98,0.12,42.38
19,-0.10,0.98,0.12,42.75
19,-0.07,1.01,0.09,47.45
19,-0.07,1.02,0.10,40.99
19,0.01,1.02,0.07,40.02
19,0.03,0.99,0.13,40.02
19,0.02,0.98,0.16,41.69
19,-0.04,0.98,0.14,41.77
19,-0.10,0.99,0.14,41.77
19,-0.10,1.01,0.09,38.48
19,-0.10,1.02,0.09,42.81
19,-0.02,1.02,0.09,42.37
19,0.02,1.00,0.12,44.72
19,0.02,0.99,0.16,44.87
19,-0.02,0.99,0.16,39.03
19,-0.09,0.99,0.15,39.03
19,-0.09,0.99,0.10,41.93
19,-0.09,0.99,0.10,49.12
19,-0.02,1.03,0.10,49.12
19,0.03,1.01,0.11,42.29
19,0.03,1.01,0.15,44.14
19,0.01,0.99,0.15,44.13
19,-0.08,0.99,0.14,47.26
19,-0.08,0.99,0.11,38.56
19,-0.10,0.99,0.11,44.89
19,-0.06,1.02,0.10,44.89
19,-0.06,1.02,0.11,36.58
19,0.03,1.02,0.09,41.31
19,0.02,0.99,0.15,41.31
19,0.00,0.99,0.15,45.25
19,-0.06,0.99,0.12,41.16
19,-0.10,0.99,0.12,41.16
19,-0.06,1.01,0.10,42.31
19,-0.06,1.02,0.11,44.36
19,0.01,1.02,0.11,44.39
19,0.03,1.00,0.14,46.74
19,0.03,0.99,0.16,41.23
19,-0.04,0.99,0.16,46.83
19,-0.10,0.99,0.13,46.83
19,-0.08,1.01,0.10,43.01
19,-0.08,1.01,0.09,46.22
19,0.00,1.03,0.09,46.22
19,0.03,1.00,0.13,46.97
19,0.03,1.00,0.16,43.50
19,-0.02,0.98,0.16,43.24
19,-0.10,0.99,0.13,42.46
19,-0.10,1.00,0.09,43.01
19,-0.09,1.00,0.09,39.54
19,-0.02,1.02,0.09,39.54
19,-0.03,1.01,0.13,38.69
19,0.03,1.01,0.15,44.68
19,0.01,0.98,0.15,44.68
19,-0.08,1.00,0.14,46.09
19,-0.08,1.00,0.11,45.55
19,-0.10,0.99,0.11,45.55
19,-0.04,1.02,0.09,48.99
19,-0.04,1.01,0.11,48.46
19,0.03,1.01,0.11,48.38
19,0.01,0.99,0.16,42.11
19,0.01,0.99,0.15,40.03
19,-0.06,0.99,0.15,44.07
19,-0.11,0.99,0.11,44.07
19,-0.06,1.01,0.09,47.51
19,-0.06,1.01,0.10,46.12
19,0.01,1.02,0.10,46.12
19,0.03,0.99,0.14,51.33
19,0.03,0.98,0.15,42.04
19,-0.05,0.98,0.15,42.21
19,-0.11,0.99,0.12,46.91
19,-0.11,1.01,0.09,38.46
19,-0.07,1.01,0.09,43.94
19,0.00,1.03,0.10,43.94
19,0.03,0.99,0.13,48.92
19,0.03,0.99,0.16,46.44
19,-0.03,0.99,0.16,46.44
19,-0.09,0.99,0.13,48.97
19,-0.09,0.99,0.10,49.32
19,-0.09,1.00,0.10,49.43
19,-0.02,1.02,0.10,46.30
19,-0.02,1.00,0.14,45.40
19,0.03,1.00,0.14,37.78
19,-0.01,0.98,0.16,37.78
19,-0.01,0.98,0.14,39.15
19,-0.09,0.98,0.16,42.01
19,-0.10,0.99,0.09,42.01
19,-0.09,1.02,0.09,43.30
19,-0.03,1.02,0.12,40.54
19,0.03,1.02,0.12,40.54
19,0.01,0.99,0.15,40.65
19,0.01,0.99,0.15,46.56
19,-0.07,0.99,0.15,46.41
19,-0.11,0.99,0.10,40.92
19,-0.11,1.01,0.09,44.47
19,-0.06,1.01,0.09,44.75
19,0.02,1.01,0.10,44.75
19,0.03,0.99,0.14,45.05
19,0.03,0.99,0.15,43.49
19,-0.06,0.99,0.15,43.49
19,-0.11,0.99,0.13,47.64
19,-0.11,0.99,0.09,48.20
19,-0.08,1.01,0.09,47.93
19,0.01,1.02,0.10,44.01
19,0.01,1.00,0.13,40.28
19,0.03,1.00,0.13,46.93
19,-0.04,0.98,0.16,46.93
19,-0.04,0.99,0.14,45.45
19,-0.10,0.99,0.17,41.88
19,-0.09,1.00,0.11,41.88
19,-0.02,1.02,0.10,47.28
19,-0.02,1.02,0.13,43.86
19,0.04,1.01,0.13,43.86
19,-0.01,0.98,0.16,42.54
19,-0.01,0.98,0.13,45.32
19,-0.08,0.98,0.13,45.19
19,-0.09,0.99,0.11,42.06
19,-0.09,1.02,0.09,35.08
19,-0.03,1.02,0.09,44.98
19,0.03,1.00,0.12,44.98
19,0.00,0.98,0.16,46.12
19,0.00,0.98,0.14,46.20
19,-0.07,0.99,0.14,46.20
19,-0.10,1.00,0.12,48.64
19,-0.10,0.96,0.09,41.53
19,-0.06,1.02,0.09,42.22
19,0.03,1.02,0.11,46.92
19,0.03,0.99,0.15,42.93
19,0.02,0.99,0.15,37.61
19,-0.05,0.99,0.15,37.61
19,-0.03,0.99,0.12,49.27
19,-0.10,0.99,0.08,45.51
19,-0.08,1.01,0.08,45.51
19,0.01,1.03,0.09,40.01
19,0.01,1.03,0.14,44.46
19,0.02,1.00,0.14,44.46
19,-0.03,0.99,0.16,45.72
19,-0.03,0.99,0.13,47.51
19,-0.09,0.99,0.13,49.07
19,-0.08,1.01,0.10,49.07
19,-0.08,1.03,0.10,51.10
19,-0.02,1.03,0.06,44.55
19,0.03,1.00,0.13,44.55
19,0.04,1.00,0.16,40.38
19,-0.02,1.00,0.14,42.80
19,-0.09,0.99,0.14,42.80
19,-0.10,1.00,0.10,44.22
19,-0.10,0.95,0.09,48.82
19,-0.03,1.01,0.09,48.88
19,0.03,1.01,0.13,46.53
19,0.03,0.98,0.15,42.65
19,-0.00,0.98,0.15,41.82
19,-0.07,0.98,0.14,41.82
19,-0.10,0.99,0.11,42.84
19,-0.10,0.99,0.10,48.12
19,-0.05,1.02,0.10,48.12
19,0.03,1.02,0.11,40.32
19,0.03,1.02,0.15,41.25
19,0.01,0.98,0.15,41.42
19,-0.06,0.98,0.15,46.90
19,-0.06,0.99,0.13,44.32
19,-0.10,0.99,0.13,37.27
19,-0.07,1.01,0.09,37.27
19,-0.07,1.02,0.10,51.81
19,0.01,1.02,0.07,41.63
19,0.02,1.00,0.14,41.63
19,-0.04,0.98,0.15,40.42
19,-0.04,0.98,0.13,44.63
19,-0.10,0.99,0.13,44.63
19,-0.07,1.01,0.09,43.44
19,-0.07,1.02,0.11,43.68
19,-0.00,1.02,0.11,43.04
19,0.03,1.00,0.13,40.69
19,0.03,0.99,0.16,46.59
19,-0.03,0.99,0.16,41.58
19,-0.10,0.99,0.14,41.58
19,-0.10,1.01,0.10,40.11
19,-0.10,1.01,0.10,41.56
19,-0.02,1.02,0.10,41.56
19,0.03,1.01,0.12,42.00
19,0.03,1.04,0.16,35.77
19,-0.00,0.98,0.16,35.72
19,-0.08,1.00,0.14,45.12
19,-0.08,0.99,0.10,44.66
19,-0.10,0.99,0.10,43.55
19,-0.03,1.02,0.10,43.55
19,-0.04,1.01,0.11,40.13
19,0.02,1.01,0.10,41.48
19,0.01,0.99,0.16,41.48
19,-0.07,0.99,0.15,45.01
19,-0.07,0.99,0.11,45.08
19,-0.11,0.99,0.11,45.09
19,-0.06,1.01,0.09,50.57
19,-0.06,1.01,0.11,38.90
20,0.02,1.00,0.14,45.57
20,-0.06,1.02,0.12,47.23
20,0.02,1.02,0.12,47.11
20,0.02,0.99,0.15,39.27
20,0.02,0.99,0.15,45.29
20,-0.06,0.99,0.13,46.06
20,-0.10,0.98,0.13,46.06
20,-0.08,1.02,0.09,39.56
20,-0.08,1.02,0.10,45.03
20,0.01,1.02,0.10,45.03
20,0.03,1.00,0.13,41.47
20,0.03,0.98,0.16,44.23
20,-0.03,0.98,0.16,43.89
20,-0.10,0.99,0.13,45.46
20,-0.10,1.00,0.09,50.45
20,-0.09,1.00,0.09,43.18
20,-0.01,1.02,0.10,43.18
20,-0.03,1.00,0.13,44.05
20,0.03,1.00,0.15,42.45
20,-0.01,1.00,0.15,42.45
20,-0.09,1.00,0.14,40.62
20,-0.09,1.00,0.10,43.76
20,-0.09,0.99,0.10,43.10
20,-0.03,1.03,0.10,43.88
20,-0.03,1.01,0.13,42.42
20,0.03,1.01,0.13,43.78
20,0.01,0.99,0.16,43.78
20,0.01,1.00,0.15,40.80
20,-0.07,1.00,0.19,40.01
20,-0.11,0.99,0.12,40.01
20,-0.11,1.01,0.10,39.18
20,-0.05,1.01,0.10,47.59
20,0.02,1.01,0.10,47.59
20,0.02,1.00,0.14,43.88
20,0.02,0.99,0.15,44.19
20,-0.06,0.99,0.15,44.18
20,-0.11,0.98,0.12,47.32
20,-0.11,1.01,0.08,41.79
20,-0.07,1.01,0.08,49.94
20,0.01,1.01,0.10,49.94
20,0.03,1.00,0.13,48.06
20,0.03,1.00,0.15,46.43
20,-0.04,0.98,0.15,46.43
20,-0.10,1.00,0.13,44.31
20,-0.10,1.00,0.09,40.16
20,-0.09,1.00,0.09,40.23
20,-0.01,1.02,0.10,41.02
20,-0.01,1.06,0.13,41.89
20,0.03,1.00,0.13,45.62
20,-0.02,0.99,0.16,45.62
20,-0.02,0.99,0.13,45.34
20,-0.09,0.99,0.17,43.98
20,-0.10,1.00,0.11,43.98
20,-0.02,1.03,0.10,40.49
20,-0.02,1.03,0.11,41.74
20,0.03,1.00,0.11,41.74
20,0.00,0.98,0.15,45.01
20,0.00,0.99,0.14,42.79
20,-0.08,0.99,0.14,42.90
20,-0.10,0.99,0.11,50.74
20,-0.10,1.02,0.09,47.01
20,-0.05,1.02,0.11,44.63
20,0.02,1.01,0.11,44.63
20,0.01,0.99,0.14,35.17
20,0.01,0.99,0.14,39.23
20,-0.06,1.00,0.14,39.23
20,-0.10,0.99,0.11,47.31
20,-0.10,0.95,0.10,46.22
20,-0.07,1.01,0.10,46.58
20,0.00,1.02,0.10,46.58
20,0.00,1.00,0.15,42.67
20,0.02,1.00,0.15,42.37
20,-0.05,0.99,0.15,42.37
20,-0.04,1.00,0.13,44.30
20,-0.10,1.00,0.16,43.21
20,-0.08,1.01,0.09,43.21
20,-0.00,1.02,0.10,50.89
20,-0.00,1.02,0.12,47.75
20,0.03,1.00,0.12,47.82
20,-0.03,0.98,0.17,47.04
20,-0.03,0.99,0.13,41.51
20,-0.09,0.99,0.13,43.87
20,-0.09,1.00,0.10,43.87
20,-0.09,1.02,0.10,43.56
20,-0.01,1.02,0.06,47.24
20,0.03,1.01,0.13,47.24
20,0.05,0.99,0.15,42.08
20,-0.01,0.99,0.15,44.50
20,-0.08,1.00,0.15,44.50
20,-0.10,0.99,0.11,49.76
20,-0.10,0.95,0.10,47.89
20,-0.04,1.01,0.10,47.86
20,0.01,1.02,0.12,53.35
20,0.01,0.99,0.15,44.27
20,0.00,0.99,0.15,51.13
20,-0.07,0.99,0.15,51.13
20,-0.11,0.99,0.11,48.07
20,-0.11,0.99,0.09,47.08
20,-0.06,1.02,0.09,47.08
20,0.01,1.02,0.11,44.71
20,0.01,1.02,0.13,41.92
20,0.02,1.00,0.13,41.46
20,-0.05,0.99,0.15,47.73
20,-0.05,0.99,0.12,44.42
20,-0.10,0.99,0.12,45.51
20,-0.08,1.01,0.09,45.51
20,-0.12,1.03,0.10,41.72
20,0.01,1.03,0.12,40.34
20,0.02,1.00,0.12,40.34
20,-0.02,1.00,0.15,45.83
20,-0.02,1.00,0.13,43.28
20,-0.11,0.99,0.13,43.28
20,-0.08,1.00,0.10,41.53
20,-0.08,0.95,0.10,46.18
20,-0.02,1.02,0.10,46.48
20,0.03,1.01,0.13,40.21
20,0.03,0.98,0.15,43.31
20,-0.01,0.98,0.13,52.46
20,-0.09,0.99,0.13,52.46
20,-0.09,0.99,0.11,41.42
20,-0.09,0.99,0.09,37.76
20,-0.04,1.02,0.09,37.76
20,0.03,1.01,0.12,49.29
20,0.03,1.05,0.15,45.62
20,-0.00,0.98,0.15,45.69
20,-0.07,0.99,0.15,40.20
20,-0.07,0.99,0.12,37.08
20,-0.10,0.99,0.12,48.68
20,-0.05,1.01,0.09,48.68
20,-0.04,1.01,0.10,45.07
20,0.02,1.01,0.08,55.06
20,0.02,0.98,0.14,55.06
20,-0.05,0.99,0.15,44.59
20,-0.05,0.99,0.12,50.63
20,-0.11,0.99,0.12,50.80
20,-0.08,1.01,0.09,46.88
20,-0.08,1.02,0.11,47.06
20,0.00,1.02,0.11,42.52
20,0.03,1.00,0.14,42.52
20,0.03,0.98,0.16,50.13
20,-0.04,0.98,0.13,50.36
20,-0.10,1.00,0.13,50.36
20,-0.09,1.00,0.10,53.27
20,-0.09,1.00,0.09,50.69
20,-0.01,1.02,0.09,50.69
20,0.02,1.01,0.14,39.86
20,0.02,1.05,0.15,41.02
20,-0.01,0.99,0.15,41.03
20,-0.09,0.99,0.14,44.94
20,-0.09,1.00,0.11,41.61
20,-0.09,1.00,0.11,48.05
20,-0.03,1.02,0.11,48.05
20,-0.03,1.01,0.12,40.69
20,0.03,1.01,0.09,48.47
20,-0.00,0.99,0.16,48.47
20,-0.08,0.99,0.14,47.04
20,-0.08,0.99,0.11,47.67
20,-0.11,1.00,0.11,47.22
20,-0.05,1.02,0.09,44.87
20,-0.05,1.01,0.11,39.94
20,0.02,1.01,0.11,41.34
20,0.02,1.00,0.14,41.34
20,0.01,0.98,0.15,41.37
20,-0.06,0.98,0.17,40.60
20,-0.10,0.99,0.11,40.60
20,-0.06,1.01,0.09,43.86
20,-0.06,1.01,0.10,46.14
20,0.01,1.01,0.10,46.14
20,0.03,1.01,0.14,44.48
20,0.03,1.06,0.15,42.49
20,-0.04,0.99,0.15,42.79
20,-0.10,0.99,0.13,45.14
20,-0.10,1.00,0.10,41.59
20,-0.09,1.00,0.10,44.02
20,-0.01,1.01,0.10,44.02
20,-0.03,1.00,0.13,39.03
20,0.03,1.00,0.15,39.35
20,-0.02,0.98,0.15,39.35
20,-0.09,0.99,0.13,43.98
20,-0.09,0.94,0.10,40.57
20,-0.09,1.01,0.10,40.48
20,-0.03,1.02,0.10,42.04
20,-0.03,1.01,0.12,41.50
20,0.03,1.01,0.12,42.48
20,-0.01,0.98,0.16,42.48
20,-0.02,0.98,0.14,41.02
20,-0.08,0.98,0.16,41.08
20,-0.10,0.99,0.10,41.08
20,-0.05,1.02,0.10,39.79
20,-0.05,1.02,0.10,41.38
20,0.02,1.01,0.10,41.32
20,0.01,0.99,0.15,48.37
20,0.01,0.98,0.14,41.12
20,-0.06,0.98,0.14,47.89
20,-0.09,0.98,0.11,47.89
20,-0.09,1.02,0.09,45.17
20,-0.07,1.02,0.10,43.93
20,0.01,1.02,0.10,43.93
20,0.03,0.99,0.13,39.26
20,0.03,0.99,0.16,41.28
20,-0.05,0.99,0.16,41.28
20,-0.10,0.99,0.12,45.02
20,-0.10,0.94,0.10,42.91
20,-0.09,1.01,0.10,42.85
20,-0.01,1.02,0.09,43.64
20,-0.01,0.99,0.12,40.68
20,0.03,0.99,0.12,49.23
20,-0.03,0.99,0.15,49.23
20,-0.03,1.00,0.13,39.05
20,-0.09,1.00,0.16,48.97
20,-0.10,0.99,0.10,48.97
20,-0.02,1.02,0.11,39.55
20,-0.02,1.02,0.13,43.15
21,0.01,0.99,0.15,42.41
21,0.01,0.99,0.14,43.84
21,-0.07,0.99,0.14,45.02
21,-0.11,0.99,0.11,45.02
21,-0.11,1.02,0.09,42.15
21,-0.06,1.02,0.11,39.52
21,0.02,1.02,0.11,39.52
21,0.02,0.99,0.14,42.40
21,0.02,0.99,0.15,44.44
21,-0.05,1.00,0.15,44.44
21,-0.10,0.99,0.12,49.37
21,-0.10,0.94,0.10,46.80
21,-0.07,1.01,0.10,46.77
21,0.00,1.02,0.11,48.34
21,0.00,1.00,0.13,46.46
21,0.03,1.00,0.13,40.19
21,-0.03,0.99,0.16,40.19
21,-0.04,0.99,0.14,40.68
21,-0.10,0.99,0.10,42.16
21,-0.08,1.01,0.10,42.16
21,-0.01,1.03,0.10,41.39
21,-0.01,1.00,0.12,48.28
21,0.03,1.00,0.12,48.24
21,-0.01,0.99,0.15,50.59
21,-0.01,0.98,0.14,52.39
21,-0.08,0.98,0.14,44.34
21,-0.10,1.00,0.11,44.34
21,-0.10,1.02,0.10,46.17
21,-0.04,1.02,0.11,41.42
21,0.03,1.01,0.11,41.42
21,0.01,0.99,0.14,40.85
21,0.01,0.99,0.14,39.49
21,-0.08,0.99,0.14,39.31
21,-0.11,0.99,0.11,38.53
21,-0.11,0.95,0.10,45.26
21,-0.06,1.01,0.10,47.71
21,0.01,1.01,0.10,47.71
21,0.01,0.99,0.14,46.37
21,0.02,0.99,0.14,42.92
21,-0.06,0.98,0.14,42.92
21,-0.04,0.99,0.10,44.50
21,-0.10,0.99,0.09,37.06
21,-0.07,1.01,0.09,37.06
21,0.01,1.01,0.11,41.54
21,0.01,1.00,0.14,38.82
21,0.03,1.00,0.14,38.51
21,-0.04,0.99,0.16,47.12
21,-0.04,0.99,0.13,42.82
21,-0.10,0.99,0.13,40.97
21,-0.09,1.01,0.09,40.97
21,-0.07,1.02,0.09,44.53
21,-0.01,1.02,0.12,40.70
21,0.04,1.00,0.12,40.70
21,-0.01,0.98,0.14,40.54
21,-0.01,0.98,0.13,42.13
21,-0.09,0.99,0.13,42.16
21,-0.09,0.99,0.11,50.78
21,-0.09,0.96,0.10,45.91
21,-0.03,1.02,0.10,45.07
21,0.03,1.00,0.12,45.07
21,0.06,0.99,0.15,46.46
21,-0.00,0.99,0.13,45.53
21,-0.07,0.99,0.13,45.53
21,-0.09,1.00,0.11,39.45
21,-0.09,1.00,0.09,44.45
21,-0.06,1.02,0.09,44.45
21,0.02,1.02,0.12,46.23
21,0.02,1.05,0.15,45.93
21,0.01,0.99,0.15,45.51
21,-0.06,0.99,0.16,43.94
21,-0.06,0.98,0.13,43.03
21,-0.10,0.98,0.16,42.96
21,-0.07,1.01,0.09,42.96
21,-0.11,1.01,0.11,47.37
21,0.01,1.01,0.15,49.72
21,0.02,1.00,0.15,49.72
21,-0.04,0.98,0.16,48.56
21,-0.04,0.99,0.13,42.36
21,-0.10,0.99,0.13,42.59
21,-0.08,1.00,0.10,42.59
21,-0.08,1.01,0.11,41.29
21,-0.01,1.01,0.11,50.10
21,0.03,1.00,0.13,50.10
21,0.04,0.98,0.15,45.76
21,-0.02,0.98,0.13,46.18
21,-0.10,0.99,0.13,46.18
21,-0.08,1.00,0.10,47.03
21,-0.08,1.00,0.09,45.98
21,-0.03,1.02,0.09,45.57
21,0.02,1.01,0.12,48.71
21,0.02,1.05,0.15,43.16
21,-0.01,0.98,0.15,40.91
21,-0.08,0.99,0.14,40.91
21,-0.08,0.99,0.11,46.55
21,-0.09,0.99,0.10,49.61
21,-0.05,1.02,0.10,49.61
21,-0.03,1.02,0.11,40.74
21,0.03,1.02,0.15,41.87
21,0.01,1.00,0.15,41.87
21,-0.06,1.00,0.14,41.98
21,-0.06,0.99,0.11,41.11
21,-0.11,0.99,0.11,41.19
21,-0.06,1.01,0.09,47.46
21,-0.06,1.01,0.11,42.51
21,0.00,1.01,0.11,45.95
21,0.03,0.99,0.15,45.95
21,0.01,0.99,0.15,43.50
21,-0.05,0.99,0.13,45.17
21,-0.11,0.99,0.13,45.17
21,-0.09,1.01,0.10,46.14
21,-0.09,1.01,0.10,45.70
21,-0.01,1.03,0.10,46.14
21,0.03,1.00,0.14,43.79
21,0.03,1.05,0.15,40.31
21,-0.02,0.99,0.15,43.14
21,-0.10,0.99,0.13,43.14
21,-0.09,1.01,0.10,47.81
21,-0.09,1.01,0.09,43.04
21,-0.02,1.03,0.09,43.04
21,0.03,1.01,0.13,50.62
21,0.03,1.01,0.16,39.46
21,-0.00,0.99,0.16,39.46
21,-0.08,0.99,0.14,47.37
21,-0.08,0.99,0.10,51.43
21,-0.09,0.99,0.10,50.86
21,-0.04,1.01,0.10,41.46
21,-0.04,1.00,0.12,44.21
21,0.02,1.00,0.09,39.89
21,0.00,0.99,0.15,39.89
21,0.05,0.99,0.14,45.25
21,-0.07,0.99,0.11,43.89
21,-0.09,0.99,0.11,43.89
21,-0.05,1.02,0.08,50.65
21,-0.05,1.01,0.10,41.27
21,0.01,1.01,0.10,40.77
21,0.02,0.99,0.14,40.77
21,0.02,1.00,0.15,41.80
21,-0.05,1.00,0.15,41.96
21,-0.11,0.98,0.12,41.96
21,-0.08,1.02,0.09,49.96
21,-0.08,1.02,0.10,41.10
21,-0.00,1.02,0.10,41.10
21,0.02,1.00,0.14,47.03
21,0.02,1.00,0.14,39.87
21,-0.03,0.98,0.14,39.85
21,-0.10,0.99,0.13,42.98
21,-0.10,0.94,0.10,45.41
21,-0.09,1.01,0.10,45.47
21,-0.02,1.02,0.11,45.47
21,-0.02,1.00,0.13,46.84
21,0.03,1.00,0.15,44.07
21,-0.01,0.99,0.15,44.07
21,-0.03,0.99,0.14,43.97
21,-0.09,0.99,0.11,43.34
21,-0.09,1.00,0.11,43.34
21,-0.03,1.02,0.09,43.64
21,-0.03,1.01,0.12,41.33
21,0.03,1.01,0.12,40.68
21,0.01,0.99,0.15,43.03
21,0.01,0.99,0.14,42.35
21,-0.08,0.99,0.14,45.62
21,-0.10,1.00,0.11,45.62
21,-0.12,1.02,0.09,39.79
21,-0.06,1.02,0.12,45.20
21,0.02,1.01,0.12,45.20
21,0.01,0.99,0.15,39.69
21,0.01,0.99,0.15,48.49
21,-0.05,0.99,0.15,48.25
21,-0.10,0.99,0.12,41.99
21,-0.10,0.95,0.09,42.38
21,-0.06,1.02,0.09,41.65
21,0.01,1.02,0.10,41.65
21,0.01,0.99,0.14,44.09
21,0.02,0.99,0.16,39.89
21,-0.03,0.99,0.16,39.89
21,-0.10,0.99,0.13,41.47
21,-0.10,0.99,0.10,46.33
21,-0.08,1.01,0.10,46.33
21,-0.00,1.02,0.10,48.90
21,-0.00,1.06,0.13,50.43
21,0.03,0.99,0.13,50.51
21,-0.02,0.98,0.15,43.46
21,-0.02,0.99,0.13,40.07
21,-0.09,0.99,0.13,40.36
21,-0.09,1.00,0.10,40.36
21,-0.09,1.01,0.09,41.17
21,-0.03,1.01,0.13,41.43
21,0.02,1.01,0.13,41.43
21,0.00,0.99,0.16,41.75
21,0.00,0.99,0.14,46.48
21,-0.08,0.99,0.14,46.63
21,-0.11,0.99,0.11,41.93
21,-0.11,1.02,0.10,47.87
21,-0.05,1.02,0.10,46.04
21,0.01,1.01,0.12,46.04
21,0.01,0.99,0.15,44.85
21,0.01,0.99,0.14,45.16
21,-0.06,0.99,0.14,45.16
21,-0.10,0.99,0.12,41.39
21,-0.10,0.99,0.10,47.41
21,-0.07,1.01,0.10,47.60
21,0.01,1.01,0.10,44.46
21,0.01,1.00,0.14,46.98
21,0.02,1.00,0.14,41.18
21,-0.04,0.99,0.14,41.18
21,-0.04,1.00,0.13,44.34
21,-0.10,1.00,0.17,42.74
21,-0.09,1.01,0.10,42.74
21,-0.07,1.02,0.10,44.12
21,-0.01,1.02,0.13,44.10
21,0.03,1.00,0.13,44.10
21,-0.02,0.98,0.14,47.99
21,-0.02,0.99,0.13,41.01
21,-0.09,0.99,0.13,41.44
21,-0.09,1.00,0.10,39.09
21,-0.09,1.02,0.10,44.18
21,-0.03,1.02,0.10,44.13
21,0.03,1.00,0.13,44.13
21,0.05,0.99,0.14,42.86
21,-0.01,0.99,0.14,40.54
21,-0.08,0.99,0.14,40.54
21,-0.10,1.00,0.10,42.95
21,-0.10,1.00,0.09,43.75
21,-0.05,1.01,0.09,43.56
21,0.01,1.01,0.12,46.69
21,0.01,1.05,0.14,44.87
21,0.01,0.99,0.14,46.55
21,-0.07,0.99,0.13,46.55
21,-0.07,1.00,0.11,40.62
21,-0.10,1.00,0.09,51.84
21,-0.05,1.01,0.09,51.84
21,0.01,1.02,0.12,39.67
21,0.01,1.02,0.15,46.59
22,-0.02,1.00,0.15,42.58
22,-0.02,1.00,0.13,42.27
22,-0.09,0.99,0.13,42.97
22,-0.09,1.00,0.10,43.75
22,-0.09,1.02,0.11,46.57
22,-0.02,1.02,0.11,43.04
22,0.03,1.00,0.12,43.04
22,0.05,0.99,0.15,50.50
22,-0.01,0.99,0.14,42.92
22,-0.09,0.99,0.14,42.92
22,-0.10,1.00,0.10,49.74
22,-0.10,1.00,0.09,48.70
22,-0.03,1.02,0.09,48.70
22,0.03,1.01,0.12,50.02
22,0.03,1.05,0.15,45.29
22,0.01,0.99,0.15,44.94
22,-0.07,0.99,0.14,48.85
22,-0.07,0.99,0.11,41.70
22,-0.10,0.99,0.11,43.63
22,-0.06,1.01,0.10,43.63
22,-0.06,1.01,0.12,47.34
22,0.00,1.01,0.14,44.60
22,0.01,0.99,0.14,44.60
22,-0.06,0.99,0.14,40.55
22,-0.06,0.99,0.11,45.07
22,-0.10,0.99,0.11,45.22
22,-0.08,1.02,0.09,43.66
22,-0.08,1.01,0.11,44.25
22,-0.00,1.01,0.11,43.27
22,0.02,1.00,0.13,43.27
22,0.04,0.99,0.14,45.07
22,-0.02,0.99,0.13,47.08
22,-0.10,0.99,0.13,47.08
22,-0.08,1.00,0.10,47.72
22,-0.08,1.00,0.10,44.12
22,-0.01,1.02,0.10,43.95
22,0.03,1.01,0.13,43.95
22,0.03,1.05,0.16,40.80
22,-0.02,0.99,0.16,46.30
22,-0.08,0.99,0.14,46.30
22,-0.08,1.00,0.11,44.46
22,-0.10,1.00,0.10,42.82
22,-0.03,1.01,0.10,42.82
22,-0.04,1.01,0.11,45.74
22,0.03,1.01,0.14,44.05
22,-0.01,0.99,0.14,44.05
22,-0.07,0.99,0.14,45.37
22,-0.07,0.99,0.11,45.29
22,-0.10,0.99,0.11,44.88
22,-0.06,1.02,0.10,44.10
22,-0.06,1.01,0.11,44.02
22,0.01,1.01,0.11,43.39
22,0.01,1.00,0.15,43.39
22,0.00,0.99,0.14,41.61
22,-0.06,0.99,0.18,45.13
22,-0.10,0.99,0.11,45.13
22,-0.08,1.01,0.10,41.09
22,-0.08,1.01,0.11,46.73
22,0.01,1.02,0.11,46.62
22,0.02,0.99,0.15,41.14
22,0.02,0.99,0.14,42.77
22,-0.04,0.99,0.14,42.00
22,-0.10,0.99,0.13,42.00
22,-0.08,1.01,0.10,41.33
22,-0.08,1.01,0.10,47.29
22,-0.01,1.01,0.10,47.29
22,0.02,1.00,0.14,41.94
22,0.02,1.00,0.15,43.69
22,-0.02,0.99,0.15,43.69
22,-0.09,0.99,0.14,43.89
22,-0.09,0.94,0.10,43.94
22,-0.09,1.00,0.10,43.82
22,-0.04,1.02,0.09,46.17
22,-0.04,1.00,0.12,43.12
22,0.02,1.00,0.08,41.27
22,0.00,0.99,0.15,41.27
22,0.05,0.98,0.14,44.27
22,-0.08,0.98,0.11,43.74
22,-0.10,0.99,0.11,43.74
22,-0.05,1.02,0.10,42.31
22,-0.05,1.01,0.11,39.40
22,0.02,1.01,0.11,39.51
22,0.01,1.00,0.15,45.78
22,0.01,1.00,0.14,47.59
22,-0.05,1.00,0.14,48.92
22,-0.09,0.99,0.11,48.92
22,-0.12,1.01,0.09,42.10
22,-0.06,1.01,0.11,42.56
22,0.00,1.02,0.11,42.56
22,0.03,0.99,0.15,44.00
22,0.03,0.99,0.15,47.07
22,-0.04,0.99,0.15,47.71
22,-0.10,0.99,0.12,48.49
22,-0.10,0.94,0.11,41.58
22,-0.08,1.00,0.11,43.05
22,-0.01,1.02,0.10,43.05
22,-0.01,0.99,0.13,46.34
22,0.03,0.99,0.15,42.87
22,-0.02,1.00,0.15,42.87
22,-0.03,0.99,0.13,45.33
22,-0.09,0.99,0.10,43.76
22,-0.09,1.00,0.10,43.76
22,-0.03,1.01,0.09,41.33
22,-0.03,1.01,0.12,45.02
22,0.02,1.01,0.12,44.63
22,-0.01,0.99,0.15,43.06
22,-0.01,0.98,0.14,38.79
22,-0.08,0.98,0.14,42.82
22,-0.09,1.01,0.11,42.82
22,-0.10,1.01,0.10,44.91
22,-0.04,1.01,0.12,44.83
