seconds, accX, accY, accZ, temp
10,-0.00,1.02,0.09,45.33
10,-0.03,1.02,0.09,45.33
10,0.00,1.00,0.09,41.86
10,0.00,1.00,0.09,39.68
10,0.02,0.98,0.09,39.68
10,-0.01,1.00,0.09,37.55
10,-0.01,1.03,0.09,41.64
10,-0.03,1.03,0.09,41.64
10,0.00,1.00,0.09,39.29
10,0.00,0.97,0.09,41.85
10,0.02,0.97,0.09,38.59
10,0.00,0.99,0.09,38.59
10,0.02,1.02,0.09,36.45
10,-0.04,1.02,0.09,42.71
10,-0.04,1.01,0.09,42.71
10,0.00,0.98,0.09,44.18
10,0.00,0.98,0.09,43.72
10,0.02,0.98,0.09,43.11
10,-0.02,1.02,0.08,42.33
10,-0.02,1.03,0.08,40.76
10,-0.03,1.03,0.08,37.62
10,0.01,0.99,0.08,37.62
10,0.03,0.98,0.10,43.30
10,0.03,0.98,0.08,45.41
10,-0.01,1.01,0.08,45.41
10,-0.03,1.02,0.09,40.47
10,-0.03,1.02,0.09,45.82
10,-0.00,0.99,0.09,45.82
10,0.03,0.98,0.09,41.69
10,0.03,0.95,0.09,39.76
10,-0.00,1.01,0.09,39.11
10,-0.03,1.03,0.10,44.59
10,-0.03,1.01,0.09,41.69
10,-0.01,1.01,0.09,40.49
10,0.02,0.98,0.09,40.49
10,0.01,1.00,0.09,39.74
10,0.01,1.00,0.09,36.69
10,-0.03,1.01,0.09,36.69
10,-0.01,1.01,0.08,46.88
10,-0.01,1.04,0.08,41.05
10,0.02,0.98,0.08,41.40
10,0.01,0.99,0.09,40.62
10,0.01,1.01,0.09,42.42
10,-0.02,1.01,0.09,39.14
10,-0.03,1.02,0.08,39.14
10,-0.06,0.99,0.08,42.38
10,0.01,0.99,0.08,42.03
10,0.02,0.98,0.08,42.03
10,-0.01,1.01,0.10,38.38
10,-0.01,1.01,0.09,42.78
10,-0.03,1.01,0.09,42.80
10,-0.01,1.00,0.08,43.58
10,-0.01,0.97,0.09,44.84
10,0.01,0.97,0.09,42.23
10,-0.01,1.00,0.10,42.23
10,-0.01,1.03,0.10,39.97
10,-0.03,1.03,0.09,44.12
10,-0.01,1.01,0.09,44.12
10,-0.05,0.98,0.09,40.84
10,0.02,0.98,0.09,42.67
10,0.01,0.99,0.09,42.67
10,-0.03,1.03,0.10,38.37
10,-0.03,1.01,0.09,37.29
10,-0.02,1.01,0.09,37.35
10,0.00,0.98,0.09,46.75
10,0.00,0.98,0.08,38.55
10,0.02,0.98,0.08,41.08
10,-0.02,1.01,0.09,41.08
10,-0.03,1.02,0.08,46.10
10,-0.03,1.02,0.10,40.19
10,-0.00,0.99,0.10,40.19
10,0.02,0.99,0.10,40.95
10,0.02,0.99,0.10,42.38
10,-0.01,1.01,0.10,42.41
10,-0.04,1.02,0.08,42.41
10,-0.04,1.00,0.08,41.75
10,-0.01,1.00,0.08,40.69
10,0.02,0.98,0.10,40.69
10,0.06,1.01,0.09,40.89
10,-0.00,1.01,0.09,37.54
10,-0.03,1.03,0.09,37.54
10,-0.02,1.01,0.09,41.96
10,-0.02,1.01,0.09,37.10
10,0.02,0.98,0.09,37.10
10,0.01,1.00,0.10,44.16
10,0.01,0.95,0.08,40.14
10,-0.03,1.01,0.08,40.66
10,-0.02,1.01,0.08,41.45
10,-0.02,0.99,0.10,38.51
10,0.02,0.99,0.10,44.96
10,0.01,0.99,0.10,44.96
10,0.04,1.02,0.09,38.85
10,-0.02,1.02,0.09,40.58
10,-0.03,1.02,0.09,40.58
10,0.01,1.00,0.09,42.79
10,0.01,0.99,0.08,44.24
10,0.02,0.99,0.08,44.38
10,-0.01,1.01,0.08,41.25
10,-0.01,1.02,0.09,41.99
10,-0.03,1.02,0.09,43.92
10,-0.01,1.00,0.09,43.92
10,-0.04,0.98,0.09,37.34
10,0.03,0.98,0.10,38.69
10,-0.01,1.01,0.10,38.69
10,-0.03,1.02,0.09,41.92
10,-0.03,1.02,0.08,44.73
10,-0.01,1.00,0.08,45.26
10,0.03,0.99,0.09,42.91
10,0.03,1.00,0.09,44.04
10,0.01,1.00,0.09,45.41
10,-0.03,1.03,0.08,45.41
10,-0.03,1.01,0.09,44.06
10,-0.01,1.01,0.09,42.25
10,0.02,0.98,0.09,42.25
10,0.01,0.99,0.09,44.87
10,0.01,0.99,0.09,39.29
10,-0.03,1.02,0.09,39.29
10,-0.03,1.02,0.10,43.88
10,-0.03,1.05,0.08,39.80
10,-0.01,0.99,0.08,39.10
10,0.02,0.99,0.09,39.10
10,0.02,1.01,0.10,41.32
10,-0.01,1.01,0.10,40.23
10,-0.03,1.03,0.09,40.23
10,-0.00,1.00,0.10,41.93
10,-0.00,1.00,0.09,42.85
10,0.03,0.98,0.09,42.85
10,-0.00,1.00,0.09,43.14
9,0.04,1.02,0.08,45.71
9,-0.02,1.02,0.08,43.55
9,-0.03,1.02,0.08,43.55
9,-0.00,0.98,0.09,43.30
9,-0.00,0.98,0.09,41.81
9,0.02,0.98,0.09,41.62
9,-0.02,1.01,0.09,47.89
9,-0.02,1.03,0.09,49.06
9,-0.03,1.03,0.09,43.24
9,-0.01,1.00,0.09,43.24
9,-0.04,0.98,0.09,42.18
9,0.03,0.98,0.09,46.09
9,0.00,1.00,0.09,46.09
9,-0.03,1.03,0.08,44.48
9,-0.03,1.03,0.08,45.07
9,-0.02,1.00,0.08,45.07
9,0.02,0.98,0.08,44.42
9,0.02,1.00,0.08,42.28
9,0.02,1.00,0.08,42.26
9,-0.03,1.02,0.08,42.26
9,-0.03,1.01,0.08,43.48
9,-0.03,1.01,0.08,38.47
9,0.02,0.99,0.08,38.47
9,0.03,0.99,0.09,47.00
9,0.03,0.99,0.09,45.02
9,-0.02,1.02,0.09,45.02
9,-0.03,1.02,0.09,40.48
9,-0.03,1.05,0.09,42.77
9,-0.01,0.99,0.09,42.96
9,0.02,0.97,0.11,46.09
9,0.02,1.02,0.10,42.95
9,-0.02,1.02,0.10,45.39
9,-0.03,1.03,0.08,45.39
9,-0.01,0.99,0.09,38.99
9,-0.01,0.99,0.09,42.08
9,0.02,0.98,0.09,42.08
9,0.00,1.00,0.09,41.03
9,0.00,0.97,0.10,38.90
9,-0.03,1.03,0.10,38.53
9,-0.01,1.01,0.08,42.44
9,-0.01,0.98,0.07,43.16
9,0.02,0.98,0.07,45.52
9,0.01,0.99,0.09,45.52
9,0.03,1.03,0.07,39.93
9,-0.03,1.03,0.07,45.93
9,-0.03,1.01,0.07,45.93
9,0.01,0.97,0.08,46.74
9,0.01,0.97,0.08,46.95
9,0.01,0.98,0.08,47.27
9,-0.02,1.02,0.09,47.27
9,-0.02,1.03,0.08,42.79
9,-0.03,1.03,0.08,42.39
9,-0.01,0.99,0.10,42.39
9,-0.01,0.99,0.10,45.48
9,0.02,0.99,0.09,40.90
9,-0.01,1.01,0.09,40.90
9,-0.03,1.02,0.09,43.62
9,-0.03,1.02,0.09,45.32
9,-0.01,1.00,0.09,45.32
9,0.03,0.97,0.08,42.49
9,0.03,0.94,0.09,47.69
9,-0.00,1.01,0.09,47.33
9,-0.03,1.03,0.08,46.55
9,-0.03,1.00,0.09,46.56
9,-0.02,1.00,0.08,44.20
9,0.03,0.98,0.08,44.20
9,0.02,0.98,0.09,42.48
9,0.02,0.98,0.08,39.19
9,-0.02,1.03,0.08,39.19
9,-0.02,1.01,0.08,42.41
9,-0.02,1.05,0.09,46.84
9,0.02,0.99,0.09,46.46
9,0.01,0.99,0.09,40.97
9,0.01,1.01,0.08,38.60
9,-0.02,1.01,0.08,44.87
9,-0.03,1.02,0.09,44.87
9,-0.06,0.98,0.08,43.09
9,0.01,0.98,0.09,43.56
9,0.02,0.98,0.09,43.56
9,-0.00,1.01,0.08,43.15
9,-0.00,1.01,0.07,47.73
9,-0.03,1.03,0.07,48.46
9,-0.02,0.99,0.08,42.20
9,-0.02,0.97,0.09,41.98
9,0.01,0.97,0.09,45.85
9,0.00,1.01,0.08,45.85
9,0.03,1.03,0.09,45.77
9,-0.03,1.03,0.10,53.08
9,-0.02,1.01,0.10,53.08
9,0.02,0.97,0.08,40.67
9,0.02,0.97,0.10,44.78
9,0.01,0.99,0.10,44.76
9,-0.02,1.03,0.08,43.97
9,-0.02,1.02,0.08,47.20
9,-0.02,1.02,0.08,38.96
9,0.00,0.99,0.09,38.96
9,0.00,0.98,0.09,43.36
9,0.02,0.98,0.09,42.04
9,-0.02,1.02,0.09,42.04
9,-0.04,1.02,0.08,41.42
9,-0.04,1.02,0.08,46.52
9,-0.00,0.99,0.08,46.52
9,0.02,0.98,0.09,41.85
9,0.02,0.95,0.08,42.08
9,-0.02,1.01,0.08,41.93
9,-0.03,1.02,0.08,45.85
9,-0.03,0.99,0.08,46.49
9,-0.01,0.99,0.08,46.19
9,0.02,0.97,0.10,46.19
9,0.06,1.00,0.09,49.55
9,-0.00,1.00,0.10,46.60
9,-0.03,1.03,0.10,46.60
9,-0.02,1.00,0.09,46.53
9,-0.02,1.03,0.10,40.32
9,0.02,0.97,0.10,40.48
9,0.02,1.00,0.08,42.05
9,0.02,1.03,0.09,43.10
9,-0.04,1.03,0.09,40.21
9,-0.03,1.01,0.08,40.21
9,-0.04,0.98,0.08,42.50
9,0.02,0.98,0.09,42.95
9,0.01,0.98,0.09,42.95
9,-0.02,1.01,0.09,43.18
9,-0.02,1.01,0.08,41.61
9,-0.03,1.01,0.08,41.47
9,0.01,0.98,0.09,47.74
9,0.01,0.97,0.09,43.30
9,0.02,0.97,0.09,41.35
9,-0.00,1.02,0.08,41.35
9,-0.03,1.02,0.07,43.78
9,-0.03,1.02,0.08,41.96
9,-0.00,1.00,0.08,41.96
9,0.02,0.98,0.09,38.71
9,0.02,0.98,0.09,44.26
9,-0.00,1.00,0.09,44.26
9,-0.03,1.02,0.08,44.57
9,-0.03,1.00,0.08,42.24
9,-0.01,1.00,0.08,45.84
9,0.01,0.98,0.09,45.84
9,0.01,1.01,0.10,42.61
9,0.01,1.01,0.08,43.23
9,-0.02,1.02,0.08,43.23
9,-0.03,1.01,0.09,42.88
9,-0.03,1.01,0.10,49.49
9,0.02,0.98,0.10,49.49
9,0.01,0.99,0.08,45.84
9,0.01,0.96,0.09,41.05
9,-0.02,1.02,0.09,40.84
9,-0.02,1.03,0.09,41.63
9,-0.02,0.99,0.10,42.97
9,0.01,0.99,0.10,46.06
9,0.02,0.98,0.10,46.06
9,0.05,1.01,0.10,45.75
9,-0.01,1.01,0.08,43.92
9,-0.03,1.02,0.08,43.92
9,-0.01,0.99,0.08,43.39
9,-0.01,0.98,0.09,44.83
9,0.01,0.98,0.09,45.19
9,0.00,1.00,0.10,43.63
9,0.00,1.02,0.09,43.80
9,-0.03,1.02,0.09,43.34
9,-0.01,1.00,0.09,43.34
9,-0.05,0.98,0.09,39.49
9,0.02,0.98,0.09,42.93
9,0.01,0.99,0.09,42.93
9,-0.02,1.02,0.08,46.87
9,-0.02,1.02,0.09,42.78
9,-0.02,1.01,0.09,42.44
9,0.02,0.98,0.08,44.00
9,0.02,0.99,0.09,45.72
9,0.02,0.99,0.09,43.86
9,-0.02,1.01,0.10,43.86
9,-0.03,1.01,0.08,44.64
9,-0.03,1.01,0.07,43.12
9,0.00,0.98,0.07,43.12
9,0.02,0.98,0.08,44.16
9,0.02,0.98,0.09,49.24
9,-0.02,1.01,0.09,49.24
9,-0.04,1.02,0.07,37.97
9,-0.04,1.06,0.09,42.96
9,-0.01,1.00,0.09,42.36
9,0.01,0.98,0.09,46.27
9,0.01,0.99,0.09,47.07
9,-0.01,0.99,0.09,43.43
9,-0.03,1.03,0.09,43.43
9,-0.01,1.01,0.09,38.91
9,-0.01,1.01,0.10,37.39
9,0.02,0.97,0.10,37.39
9,0.01,0.99,0.10,46.71
9,0.01,0.96,0.09,42.76
9,-0.03,1.02,0.09,42.32
9,-0.01,1.02,0.08,43.89
9,-0.01,0.98,0.09,46.06
9,0.02,0.98,0.09,45.11
9,0.01,1.00,0.09,45.11
9,0.04,1.02,0.08,44.31
9,-0.02,1.02,0.09,42.30
9,-0.03,1.02,0.09,42.30
9,0.00,0.99,0.08,42.18
9,0.00,0.98,0.09,39.41
9,0.02,0.98,0.09,39.49
9,-0.01,1.01,0.10,44.19
9,-0.01,1.03,0.09,43.86
9,-0.02,1.03,0.09,42.32
9,-0.01,0.99,0.09,42.32
9,-0.05,0.97,0.08,43.40
9,0.01,0.97,0.09,43.16
9,-0.00,1.00,0.09,43.16
9,-0.03,1.02,0.09,47.39
9,-0.03,1.02,0.09,48.23
9,-0.02,1.00,0.09,47.91
9,0.02,0.98,0.09,44.78
9,0.02,0.99,0.09,42.82
9,0.00,0.99,0.09,45.73
9,-0.02,1.02,0.08,45.73
9,-0.02,1.01,0.08,47.41
9,-0.01,1.01,0.08,41.95
9,0.02,0.98,0.08,41.95
9,0.01,0.99,0.09,45.81
10,-0.02,1.02,0.08,42.85
11,-0.03,1.00,0.09,43.79
11,-0.01,1.00,0.09,43.10
11,0.01,0.98,0.10,39.97
11,0.01,0.99,0.08,41.86
11,0.00,0.99,0.08,41.59
11,-0.03,1.02,0.09,41.59
11,-0.01,1.01,0.09,38.41
11,-0.01,1.01,0.08,39.81
11,0.01,0.99,0.08,39.81
11,0.01,0.99,0.09,43.07
11,0.01,0.99,0.09,40.43
11,-0.03,1.02,0.09,40.21
11,-0.02,1.01,0.10,41.78
11,-0.02,0.99,0.10,44.61
11,0.01,0.99,0.10,41.72
11,0.02,0.99,0.09,41.72
11,0.05,1.02,0.10,43.27
11,-0.01,1.02,0.09,41.68
11,-0.02,1.02,0.09,41.68
11,0.01,1.00,0.09,42.03
11,0.01,1.00,0.10,43.22
11,0.01,0.98,0.10,43.22
11,-0.01,1.01,0.09,40.95
11,-0.01,1.02,0.08,39.90
11,-0.03,1.02,0.08,40.63
11,-0.01,0.99,0.08,40.63
11,-0.01,0.98,0.08,39.43
11,0.02,0.98,0.09,39.94
11,-0.00,1.00,0.09,39.94
11,-0.04,1.02,0.08,39.05
11,-0.04,1.02,0.07,42.80
11,-0.01,1.01,0.07,42.80
11,0.01,0.98,0.08,38.99
11,0.01,1.00,0.10,43.65
11,0.00,1.00,0.10,43.31
11,-0.02,1.02,0.09,38.61
11,-0.02,1.02,0.09,41.53
11,-0.02,1.02,0.09,39.25
11,0.01,0.99,0.10,39.25
11,0.01,0.99,0.11,40.76
11,0.01,0.99,0.09,46.97
11,-0.01,1.01,0.09,46.97
11,-0.03,1.01,0.08,44.60
11,-0.03,1.01,0.09,44.57
11,0.01,0.99,0.09,44.12
11,0.02,0.99,0.08,38.63
11,0.02,0.95,0.08,41.57
11,-0.00,1.01,0.08,41.58
11,-0.03,1.02,0.07,41.58
11,-0.03,1.00,0.09,44.15
11,-0.00,1.00,0.08,39.33
11,0.01,0.98,0.08,39.33
11,0.00,1.01,0.08,40.26
11,0.00,1.01,0.09,43.64
11,-0.03,1.02,0.09,43.64
11,-0.02,1.01,0.08,39.48
11,-0.02,1.05,0.08,38.20
11,0.02,0.99,0.08,38.00
11,0.01,1.00,0.09,45.83
11,0.01,1.02,0.08,42.21
11,-0.02,1.02,0.08,42.31
11,-0.02,1.00,0.09,42.31
11,-0.00,0.99,0.09,39.48
11,-0.00,0.99,0.10,44.40
11,0.01,0.99,0.10,44.40
11,-0.02,1.01,0.09,41.77
11,-0.02,1.01,0.09,40.19
11,-0.02,1.01,0.09,40.46
11,0.01,1.00,0.09,42.03
11,0.01,0.98,0.09,38.64
11,0.02,0.98,0.09,41.64
11,-0.00,1.01,0.10,41.64
11,-0.02,1.02,0.09,42.15
11,-0.02,1.02,0.09,42.48
11,-0.00,0.99,0.09,42.48
11,0.01,0.99,0.09,43.15
11,0.01,0.99,0.09,41.49
11,-0.01,1.00,0.09,41.49
11,-0.03,1.02,0.09,46.40
11,-0.03,1.01,0.08,44.20
11,-0.01,1.01,0.08,44.48
11,0.01,0.99,0.08,46.04
11,0.01,1.00,0.10,43.50
11,0.01,1.00,0.10,42.59
11,-0.03,1.02,0.09,42.59
11,-0.02,1.01,0.09,42.45
11,-0.02,1.01,0.09,39.89
11,0.00,0.99,0.09,39.89
11,0.01,0.99,0.09,41.36
11,0.01,0.94,0.08,45.03
12,-0.01,0.99,0.10,40.22
12,-0.01,0.99,0.09,45.07
12,0.01,0.99,0.09,44.82
12,-0.01,1.00,0.09,40.91
12,-0.01,1.02,0.09,41.26
12,-0.02,1.02,0.10,42.67
12,-0.02,1.00,0.10,42.67
12,-0.04,0.98,0.09,40.92
12,0.02,0.98,0.09,45.57
12,0.00,0.99,0.09,45.57
12,-0.02,1.02,0.09,39.84
12,-0.02,1.01,0.08,42.27
12,-0.02,1.01,0.08,42.94
12,0.00,0.99,0.09,42.16
12,0.00,0.99,0.10,47.29
12,0.01,0.99,0.10,48.59
12,-0.02,1.01,0.09,48.59
12,-0.03,1.02,0.09,44.01
12,-0.03,1.02,0.09,41.84
12,0.01,1.00,0.09,41.84
12,0.01,0.98,0.09,40.39
12,0.01,0.98,0.09,43.06
12,-0.01,1.00,0.09,43.20
12,-0.02,1.01,0.10,39.28
12,-0.02,1.06,0.09,41.96
12,0.00,1.00,0.09,42.49
12,0.02,0.98,0.08,42.49
12,0.02,0.99,0.08,39.54
12,0.01,0.99,0.08,44.20
12,-0.02,1.02,0.08,44.20
12,-0.01,1.00,0.08,41.53
12,-0.01,1.00,0.09,41.56
12,0.01,0.98,0.09,41.56
12,0.00,1.00,0.10,40.33
12,0.00,0.96,0.10,40.82
12,-0.03,1.02,0.10,40.85
12,-0.02,1.01,0.08,47.90
12,-0.02,0.99,0.10,41.67
12,0.00,0.99,0.10,42.99
12,0.01,0.99,0.09,42.99
12,0.04,1.01,0.10,39.79
12,-0.02,1.01,0.09,42.43
12,-0.02,1.01,0.09,42.43
12,-0.01,1.00,0.09,43.65
12,-0.01,1.00,0.10,45.61
12,0.00,0.98,0.10,46.14
12,-0.01,1.01,0.09,39.09
12,-0.01,1.02,0.09,40.78
12,-0.02,1.02,0.09,42.22
12,0.00,1.00,0.08,42.22
12,0.02,0.99,0.10,41.21
12,0.02,0.99,0.09,37.89
12,-0.01,1.00,0.09,37.89
12,-0.03,1.01,0.08,40.31
12,-0.03,1.01,0.10,39.82
12,-0.02,1.00,0.10,39.82
12,0.01,0.99,0.10,43.66
12,0.01,1.00,0.09,40.86
12,0.01,1.00,0.09,41.04
12,-0.01,1.01,0.09,44.17
12,-0.01,1.01,0.08,42.50
12,-0.01,1.01,0.08,39.65
12,0.01,1.00,0.08,39.65
12,0.01,0.99,0.08,41.64
12,0.01,0.99,0.09,41.14
12,-0.02,1.01,0.09,41.14
12,-0.03,1.01,0.09,46.88
12,-0.03,1.05,0.09,43.70
12,-0.00,0.99,0.09,43.70
12,0.02,0.98,0.09,42.91
12,0.02,1.01,0.08,42.59
12,-0.01,1.01,0.08,38.53
12,-0.03,1.02,0.09,38.53
12,-0.06,1.00,0.09,44.33
12,0.00,1.00,0.09,38.08
12,0.02,1.00,0.09,38.08
12,-0.00,1.01,0.09,38.83
12,-0.00,1.01,0.08,41.95
12,-0.02,1.02,0.08,41.50
12,-0.01,1.01,0.09,40.72
12,-0.01,1.04,0.08,40.69
12,0.01,0.98,0.08,41.25
12,-0.00,1.00,0.09,41.25
12,-0.00,1.01,0.09,40.27
12,-0.03,1.01,0.08,41.10
12,-0.02,1.01,0.08,41.10
12,-0.06,0.99,0.09,44.79
12,0.00,0.99,0.09,38.70
12,0.01,0.99,0.09,38.70
12,-0.01,1.00,0.10,42.61
12,-0.01,1.01,0.09,41.16
12,-0.01,1.01,0.09,40.79
12,0.01,1.00,0.09,41.57
12,0.01,0.99,0.10,43.00
12,0.01,0.99,0.10,43.05
12,-0.01,1.01,0.10,43.05
12,-0.03,1.02,0.09,42.36
12,-0.03,1.02,0.10,38.06
12,-0.02,1.00,0.10,38.06
12,0.01,0.99,0.10,40.17
12,0.01,0.99,0.09,38.98
12,-0.00,1.00,0.09,39.10
12,-0.03,1.01,0.08,39.10
12,-0.03,1.00,0.09,42.92
12,-0.02,1.00,0.09,42.22
12,0.01,0.98,0.08,42.22
12,0.01,1.00,0.08,46.65
12,0.01,1.00,0.07,38.70
12,-0.03,1.01,0.07,38.70
12,-0.03,1.00,0.07,44.45
12,-0.03,1.00,0.08,38.47
12,0.00,0.99,0.08,38.47
12,-0.00,0.99,0.09,40.61
12,-0.00,0.95,0.09,40.03
12,-0.01,1.01,0.09,40.24
12,-0.02,1.01,0.09,43.38
12,-0.02,0.99,0.09,37.88
12,0.01,0.99,0.08,45.58
12,0.02,0.99,0.08,45.58
12,0.06,1.01,0.09,40.65
12,-0.00,1.01,0.10,36.48
12,-0.03,1.02,0.10,36.48
12,-0.00,1.00,0.10,48.62
12,-0.00,0.98,0.09,45.11
12,0.01,0.98,0.09,45.09
12,-0.00,1.00,0.09,44.31
12,-0.00,1.02,0.10,43.29
12,-0.02,1.02,0.10,42.72
12,-0.02,1.00,0.09,42.72
12,-0.06,0.99,0.09,40.95
12,0.01,0.99,0.10,42.47
12,0.00,1.00,0.10,42.47
12,-0.03,1.02,0.09,44.54
12,-0.03,1.02,0.09,45.74
12,-0.02,1.01,0.09,46.05
12,0.01,0.98,0.09,42.13
12,0.01,0.99,0.09,43.01
12,0.01,0.99,0.09,40.27
12,-0.02,1.01,0.10,40.27
12,-0.02,1.01,0.07,42.01
12,-0.02,1.01,0.08,41.17
12,0.01,0.98,0.08,41.17
12,0.01,0.98,0.07,43.14
12,0.01,0.98,0.08,39.53
12,-0.01,1.00,0.08,39.53
12,-0.03,1.01,0.09,41.07
12,-0.03,1.00,0.09,40.77
12,-0.01,1.00,0.09,40.89
12,0.02,0.98,0.09,40.10
12,0.02,1.00,0.10,39.51
12,-0.00,1.00,0.10,46.15
12,-0.03,1.02,0.10,46.15
12,-0.02,1.01,0.09,40.66
12,-0.02,1.01,0.10,47.01
12,0.01,0.99,0.10,47.01
12,0.01,0.99,0.10,44.32
12,0.01,0.99,0.09,44.13
12,-0.02,1.02,0.09,44.48
12,-0.02,1.01,0.08,41.34
12,-0.02,1.05,0.09,38.20
12,0.01,0.99,0.09,41.16
12,0.01,0.99,0.09,41.16
12,0.04,1.01,0.09,45.65
12,-0.02,1.01,0.09,39.01
12,-0.02,1.01,0.09,39.01
12,-0.00,0.98,0.09,39.94
12,-0.00,0.98,0.08,42.28
12,0.01,0.99,0.08,42.28
12,-0.01,1.00,0.08,42.96
12,-0.01,1.01,0.09,39.75
12,-0.02,1.01,0.09,39.15
12,-0.01,0.99,0.09,40.72
12,-0.01,0.98,0.09,39.54
12,0.01,0.98,0.09,40.83
12,0.01,1.01,0.08,40.83
12,0.04,1.02,0.08,42.39
12,-0.02,1.02,0.08,42.72
12,-0.00,1.00,0.08,42.72
12,0.01,0.98,0.08,40.42
12,0.01,1.00,0.09,41.40
12,0.00,1.00,0.09,41.13
12,-0.02,1.01,0.08,38.78
12,-0.02,1.00,0.09,38.80
12,-0.02,1.00,0.09,40.70
12,0.00,0.98,0.08,40.70
12,0.01,1.00,0.10,39.89
12,0.01,1.00,0.10,40.67
12,-0.03,1.02,0.10,40.67
12,-0.03,1.01,0.09,43.73
12,-0.03,1.01,0.10,40.59
12,-0.00,0.99,0.10,39.99
12,0.01,0.99,0.10,41.55
12,0.01,0.96,0.10,41.83
12,-0.01,1.02,0.10,41.86
12,-0.02,1.02,0.11,41.86
12,-0.02,1.00,0.10,38.08
12,0.00,1.00,0.09,43.94
12,0.02,0.98,0.09,43.94
12,0.06,1.01,0.09,44.96
12,-0.00,1.01,0.09,43.24
12,-0.03,1.02,0.09,43.24
12,-0.01,1.00,0.08,43.39
12,-0.01,1.05,0.08,40.58
12,0.01,0.98,0.08,40.66
12,0.01,0.99,0.09,38.31
12,0.01,1.02,0.08,39.60
12,-0.01,1.02,0.08,44.98
12,-0.01,1.00,0.08,44.98
12,-0.05,0.98,0.08,40.12
12,0.01,0.98,0.09,40.11
12,0.01,1.00,0.09,40.11
12,-0.01,1.01,0.08,38.65
12,-0.01,1.01,0.08,46.63
12,-0.03,1.01,0.08,46.92
12,-0.01,0.99,0.09,42.22
12,-0.01,0.99,0.09,44.83
12,0.00,0.99,0.09,41.10
12,-0.02,1.01,0.08,41.10
12,-0.03,1.02,0.08,41.10
12,-0.03,1.02,0.08,40.79
12,0.01,1.00,0.08,40.79
12,0.01,0.98,0.10,37.07
12,0.01,0.98,0.09,43.62
12,0.01,1.01,0.09,43.62
12,-0.03,1.01,0.08,41.99
12,-0.03,1.00,0.08,37.81
12,-0.02,1.00,0.08,38.25
12,0.01,0.98,0.09,40.60
12,0.01,1.00,0.09,42.09
12,-0.00,1.00,0.09,43.49
12,-0.03,1.02,0.09,43.49
12,-0.02,1.01,0.10,39.94
12,-0.02,1.01,0.10,41.95
13,-0.02,1.00,0.09,39.17
13,-0.02,1.00,0.08,40.92
13,-0.02,1.02,0.08,40.92
13,0.00,0.99,0.08,45.93
13,0.00,0.99,0.09,42.30
13,0.01,0.99,0.09,41.95
13,-0.01,1.00,0.08,41.95
13,-0.01,1.01,0.08,48.37
13,-0.03,1.01,0.08,42.77
13,-0.01,1.00,0.08,42.77
13,-0.05,0.99,0.09,40.67
13,0.01,0.99,0.08,39.96
13,-0.01,0.99,0.08,39.96
13,-0.02,1.00,0.09,41.70
13,-0.02,1.01,0.09,37.79
13,-0.01,1.01,0.09,37.79
13,-0.00,0.99,0.10,49.54
13,-0.00,0.99,0.09,40.09
13,0.01,0.99,0.09,44.50
13,-0.01,1.01,0.10,44.50
13,-0.02,1.01,0.10,44.90
13,-0.02,1.01,0.09,40.69
13,0.01,1.00,0.09,40.69
13,0.02,0.99,0.09,40.24
13,0.02,0.99,0.08,40.27
13,-0.01,1.01,0.08,40.09
13,-0.03,1.01,0.08,43.23
13,-0.03,1.06,0.07,41.75
13,-0.00,1.00,0.07,42.07
13,0.01,0.99,0.08,42.07
13,0.01,0.99,0.08,40.64
13,-0.00,0.99,0.08,45.13
13,-0.02,1.02,0.08,45.13
13,-0.01,1.01,0.09,47.85
13,-0.01,1.01,0.08,41.65
13,0.00,0.99,0.08,41.65
13,-0.00,1.00,0.09,41.78
13,-0.00,0.96,0.09,40.26
13,-0.01,1.02,0.09,40.43
13,-0.01,1.00,0.08,42.78
13,-0.01,0.99,0.09,38.72
13,0.00,0.99,0.09,43.96
13,0.01,0.99,0.10,43.96
13,0.05,1.02,0.10,41.02
13,-0.02,1.02,0.10,35.05
13,-0.03,1.01,0.10,35.05
13,-0.00,1.00,0.09,44.02
13,-0.00,1.00,0.10,45.14
13,0.00,0.99,0.10,45.17
13,-0.01,1.01,0.10,42.04
13,-0.01,1.01,0.09,40.16
13,-0.02,1.01,0.09,37.97
13,-0.00,0.99,0.09,37.97
13,-0.05,0.99,0.08,38.24
13,0.02,0.99,0.08,38.98
13,-0.01,1.01,0.08,38.98
13,-0.04,1.02,0.08,39.30
13,-0.04,1.02,0.08,37.51
13,-0.01,1.00,0.08,37.51
13,0.01,0.98,0.08,38.39
13,0.01,0.94,0.08,39.52
13,-0.00,1.00,0.08,39.11
13,-0.02,1.01,0.09,39.11
13,-0.02,1.00,0.08,40.14
13,-0.00,1.00,0.09,44.15
13,0.02,0.99,0.09,44.15
13,0.01,0.99,0.10,50.72
13,0.01,0.99,0.10,43.49
13,-0.02,1.01,0.10,43.49
13,-0.02,1.01,0.10,43.04
13,-0.02,1.05,0.10,39.25
13,-0.00,0.99,0.10,39.24
13,-0.00,0.99,0.09,39.24
13,-0.00,1.02,0.09,42.28
13,-0.01,1.02,0.09,42.27
13,-0.01,1.01,0.09,42.27
13,-0.00,0.99,0.08,41.48
13,-0.00,0.99,0.08,43.08
13,0.01,0.99,0.08,43.08
13,0.00,1.01,0.08,41.48
13,0.00,1.01,0.09,41.15
13,-0.03,1.01,0.09,41.11
13,-0.02,1.00,0.09,42.67
13,-0.02,0.98,0.09,36.36
13,0.01,0.98,0.09,45.85
13,0.00,1.00,0.10,45.85
13,0.00,1.02,0.09,39.88
13,-0.02,1.02,0.09,42.15
13,-0.01,1.00,0.09,42.15
13,-0.05,0.99,0.10,43.63
13,0.01,0.99,0.09,44.31
13,0.01,1.00,0.09,44.31
13,-0.02,1.02,0.09,39.64
13,-0.02,1.02,0.09,45.54
13,-0.02,1.02,0.09,45.78
13,0.00,1.00,0.09,44.21
13,0.00,1.00,0.08,39.08
13,0.01,1.00,0.08,38.90
13,-0.01,1.01,0.08,38.90
13,-0.02,1.01,0.09,39.70
13,-0.02,1.01,0.09,37.58
13,-0.00,1.00,0.09,37.58
13,0.01,1.00,0.09,40.34
13,0.01,1.00,0.10,41.59
13,-0.00,1.00,0.10,42.22
13,-0.03,1.02,0.09,38.30
13,-0.03,1.00,0.08,40.17
13,-0.01,1.00,0.08,44.31
13,0.01,0.99,0.10,44.31
13,0.06,0.99,0.09,43.30
13,-0.00,0.99,0.08,41.92
13,-0.02,1.01,0.08,41.92
13,-0.01,1.01,0.08,41.29
13,-0.01,1.01,0.10,44.15
13,0.00,0.99,0.10,44.15
13,0.01,0.99,0.09,45.32
13,0.01,0.94,0.09,47.75
13,-0.02,1.00,0.09,48.28
13,-0.01,1.00,0.08,41.23
13,-0.01,0.98,0.08,46.05
13,0.01,0.98,0.10,42.14
13,0.01,0.98,0.10,42.14
13,0.05,1.01,0.10,48.44
13,-0.01,1.01,0.09,48.10
13,-0.03,1.01,0.09,48.10
13,-0.01,1.00,0.09,43.53
13,-0.01,1.06,0.08,43.84
13,0.01,0.99,0.08,44.24
13,-0.00,1.00,0.08,45.02
13,-0.00,1.01,0.08,38.43
13,-0.02,1.01,0.08,36.27
13,-0.01,1.00,0.08,36.27
13,-0.00,0.99,0.10,40.61
13,-0.00,0.99,0.10,40.58
13,0.00,1.00,0.10,40.58
13,-0.02,1.02,0.09,38.22
13,-0.02,1.02,0.09,38.59
13,-0.02,1.01,0.09,38.39
13,0.01,0.99,0.08,36.82
13,0.01,0.94,0.10,45.43
13,0.01,1.01,0.10,40.39
13,-0.01,1.02,0.08,40.39
13,-0.01,1.01,0.08,37.98
13,-0.01,1.01,0.09,43.23
13,0.00,0.99,0.09,43.23
13,0.06,0.99,0.10,39.04
13,-0.00,0.99,0.10,43.91
13,-0.02,1.01,0.10,43.91
13,-0.03,1.01,0.10,39.64
13,-0.03,1.06,0.09,43.40
13,-0.01,1.00,0.09,43.19
13,0.03,1.00,0.09,44.76
13,0.03,0.99,0.09,39.46
13,-0.01,0.99,0.09,45.99
13,-0.02,1.01,0.08,45.99
13,-0.01,1.00,0.08,41.96
13,-0.01,1.00,0.09,43.33
13,0.01,0.99,0.09,43.33
13,-0.01,1.00,0.08,42.33
13,-0.01,1.00,0.09,40.61
13,-0.02,1.01,0.09,40.40
13,-0.01,1.00,0.08,41.18
13,-0.01,1.05,0.09,45.24
13,0.01,0.99,0.09,39.29
13,0.00,1.00,0.10,39.29
13,0.04,1.01,0.09,41.67
13,-0.02,1.01,0.10,38.79
13,-0.01,1.01,0.10,38.79
13,-0.01,0.99,0.10,42.85
13,-0.01,0.99,0.09,40.92
13,0.01,1.00,0.09,40.92
13,-0.00,1.01,0.10,43.14
13,-0.00,1.02,0.09,39.64
13,-0.02,1.02,0.09,39.24
13,0.01,1.00,0.09,42.38
13,0.01,0.99,0.09,37.97
13,0.01,0.99,0.09,40.87
13,-0.00,1.00,0.09,40.87
13,-0.02,1.01,0.09,38.62
13,-0.02,1.01,0.09,40.07
13,0.00,1.00,0.09,40.07
13,0.02,0.99,0.09,40.21
13,0.02,0.94,0.08,39.85
13,0.01,1.00,0.08,39.43
13,-0.01,1.00,0.08,35.51
13,-0.01,1.01,0.08,38.89
13,-0.02,1.01,0.08,41.30
13,0.00,0.99,0.09,41.30
13,0.01,1.00,0.09,40.77
13,0.01,1.00,0.09,43.59
13,-0.01,1.02,0.09,43.59
13,-0.02,1.01,0.09,38.78
13,-0.02,1.01,0.09,43.67
13,0.00,0.99,0.09,43.17
13,0.02,0.99,0.09,42.39
13,0.02,0.95,0.09,47.68
13,-0.01,1.01,0.09,38.89
13,-0.02,1.01,0.09,38.89
13,-0.02,1.00,0.08,38.39
13,-0.01,1.00,0.09,40.72
13,0.01,0.99,0.09,40.72
13,0.05,1.01,0.09,41.92
13,-0.01,1.01,0.09,41.21
13,-0.03,1.01,0.09,41.21
13,-0.01,1.00,0.08,41.76
13,-0.01,0.99,0.09,43.55
13,0.01,0.99,0.09,43.15
13,-0.00,0.98,0.08,43.93
13,-0.00,1.01,0.09,41.10
13,-0.02,1.01,0.09,42.04
13,-0.01,1.01,0.08,42.04
13,-0.06,0.99,0.09,40.56
13,0.01,0.99,0.09,40.71
13,0.00,0.99,0.09,40.71
13,-0.02,1.00,0.08,44.76
13,-0.02,1.00,0.09,40.24
13,-0.02,1.01,0.09,40.22
13,0.00,0.98,0.09,42.57
13,0.00,0.99,0.09,39.60
13,-0.00,0.99,0.09,41.06
13,-0.02,1.01,0.09,41.06
13,-0.02,1.01,0.08,37.40
13,-0.02,1.01,0.09,38.69
13,0.00,1.00,0.09,38.69
13,0.01,0.99,0.10,39.75
13,0.01,0.99,0.10,37.08
13,0.00,1.00,0.10,37.08
13,-0.01,1.01,0.09,45.75
13,-0.01,1.00,0.09,44.11
13,-0.01,1.00,0.09,44.23
13,0.00,0.98,0.10,45.02
13,0.00,1.00,0.09,41.77
13,-0.00,1.00,0.09,40.05
14,-0.06,1.00,0.09,36.76
14,0.00,1.00,0.09,44.89
14,0.01,0.99,0.09,44.89
14,-0.02,1.00,0.09,41.30
14,-0.02,1.00,0.09,39.12
14,-0.02,1.01,0.09,39.74
14,-0.01,1.00,0.08,40.52
14,-0.01,1.06,0.10,41.16
14,0.01,1.00,0.10,41.97
14,-0.01,1.00,0.09,41.97
14,-0.01,1.00,0.08,40.76
14,-0.02,1.00,0.07,45.22
14,-0.01,1.00,0.07,45.22
14,0.01,0.99,0.09,45.17
14,0.01,0.99,0.08,43.79
14,-0.00,1.01,0.08,43.79
14,-0.03,1.01,0.09,42.84
14,-0.03,1.00,0.08,43.03
14,-0.02,1.00,0.08,43.48
14,0.01,0.99,0.08,42.70
14,0.01,1.00,0.09,45.54
14,0.00,1.00,0.09,46.29
14,-0.01,1.01,0.08,46.29
14,-0.03,1.01,0.09,40.49
14,-0.03,1.01,0.09,40.46
14,0.00,1.00,0.09,40.46
14,0.01,1.00,0.09,43.23
14,0.01,1.00,0.08,41.48
14,-0.00,1.01,0.08,41.54
14,-0.01,1.02,0.08,39.19
14,-0.01,1.00,0.09,40.17
14,-0.00,1.00,0.09,41.35
14,0.01,0.99,0.10,41.35
14,0.05,1.01,0.09,39.83
14,-0.01,1.01,0.09,50.43
14,-0.02,1.02,0.09,50.43
14,-0.01,1.00,0.09,45.11
14,-0.01,1.00,0.08,39.15
14,0.00,0.99,0.08,39.15
14,-0.01,1.00,0.08,39.59
14,-0.01,0.95,0.08,46.53
14,-0.01,1.02,0.08,46.19
14,-0.01,1.00,0.09,43.05
14,-0.01,0.99,0.09,44.27
14,0.00,0.99,0.09,45.37
14,-0.00,1.00,0.10,45.37
14,-0.02,1.01,0.08,45.01
14,-0.02,1.01,0.09,37.78
14,-0.01,1.01,0.09,37.78
14,0.00,0.99,0.09,39.89
14,0.00,0.99,0.09,39.27
14,-0.00,0.99,0.09,39.35
14,-0.01,1.01,0.08,38.56
14,-0.01,1.01,0.09,47.52
14,-0.02,1.01,0.09,40.22
14,0.00,0.99,0.09,40.22
14,0.01,0.99,0.10,43.60
14,0.01,0.99,0.09,49.29
14,-0.00,1.01,0.09,49.29
14,-0.02,1.02,0.09,41.47
14,-0.02,1.02,0.08,38.63
14,0.00,1.01,0.08,38.60
14,0.01,0.99,0.09,43.30
14,0.01,0.94,0.09,44.70
14,-0.00,1.00,0.09,42.10
14,-0.02,1.01,0.09,42.10
14,-0.02,1.00,0.08,39.27
14,-0.01,1.00,0.09,40.84
14,0.00,0.99,0.09,40.84
14,0.00,1.00,0.09,46.62
14,0.00,1.00,0.09,42.44
14,-0.02,1.01,0.09,42.44
14,-0.01,1.01,0.09,41.53
14,-0.01,1.06,0.09,44.34
14,-0.00,0.99,0.09,43.84
14,0.01,0.99,0.09,39.92
14,0.01,1.01,0.10,40.74
14,-0.01,1.01,0.10,38.59
14,-0.01,1.02,0.10,38.59
14,-0.06,1.00,0.08,39.65
14,0.01,1.00,0.10,38.55
14,0.01,1.00,0.10,38.55
14,-0.01,1.01,0.10,41.29
14,-0.01,1.01,0.10,39.63
14,-0.03,1.01,0.10,39.38
14,-0.02,1.00,0.09,44.08
14,-0.02,0.99,0.09,44.32
14,-0.00,0.99,0.09,42.41
14,-0.01,1.00,0.09,42.41
14,-0.01,1.01,0.08,47.92
14,-0.01,1.01,0.08,43.35
14,-0.01,0.99,0.08,43.35
14,0.01,0.99,0.08,43.60
14,0.01,0.99,0.08,38.89
14,-0.00,1.00,0.08,38.89
14,-0.02,1.01,0.08,40.79
14,-0.02,1.06,0.07,39.39
14,-0.01,0.99,0.07,42.93
14,-0.00,0.99,0.07,42.93
14,-0.00,0.99,0.08,43.14
14,0.00,0.99,0.09,48.79
14,-0.01,1.00,0.09,48.79
14,-0.01,1.02,0.09,41.56
14,-0.01,1.02,0.09,42.65
14,0.00,1.00,0.09,42.65
14,-0.00,0.99,0.10,39.47
14,-0.00,0.95,0.10,42.09
14,-0.01,1.01,0.10,41.54
1,0.07,0.94,0.11,40.40
1,-0.12,1.19,0.11,39.39
1,-0.12,1.04,0.07,39.39
1,-0.10,0.83,0.08,41.13
1,0.09,0.83,0.10,41.63
1,0.13,0.92,0.10,41.63
1,-0.07,1.17,0.11,40.19
1,-0.07,1.17,0.08,39.83
1,-0.14,1.10,0.08,39.78
1,0.04,0.86,0.08,49.18
1,0.04,0.87,0.09,42.05
1,0.16,0.87,0.09,40.61
1,-0.01,1.12,0.11,40.61
1,-0.01,1.13,0.07,43.33
1,-0.15,1.13,0.12,44.83
1,-0.04,0.89,0.06,44.83
1,-0.06,0.84,0.08,40.09
1,0.13,0.84,0.11,42.06
1,0.03,1.08,0.11,42.06
1,-0.16,1.18,0.08,42.96
1,-0.16,1.16,0.06,41.78
1,-0.08,0.97,0.06,41.51
1,0.12,0.82,0.07,39.16
1,0.12,1.01,0.11,37.22
1,0.10,1.01,0.11,42.43
1,-0.12,1.18,0.10,42.43
1,-0.12,1.02,0.05,42.91
1,-0.12,1.02,0.01,39.57
1,0.08,0.84,0.08,39.57
1,0.12,0.93,0.10,43.72
1,0.12,0.93,0.12,38.60
1,-0.08,1.17,0.12,38.38
1,-0.13,1.10,0.08,43.08
1,-0.13,0.87,0.07,43.95
1,0.05,0.87,0.07,42.59
1,0.13,0.88,0.09,42.59
1,0.16,1.12,0.12,44.53
1,-0.03,1.12,0.08,43.80
1,-0.16,1.14,0.08,43.80
1,-0.02,0.92,0.06,40.17
1,-0.02,0.92,0.08,37.95
1,0.14,0.85,0.08,37.95
1,0.05,1.08,0.12,42.64
1,0.05,1.10,0.10,44.27
1,-0.15,1.16,0.10,44.14
1,-0.07,0.94,0.05,42.57
1,-0.07,0.81,0.06,45.07
1,0.12,0.81,0.12,44.19
1,0.11,1.03,0.12,44.19
1,0.11,1.20,0.10,43.24
1,-0.14,1.20,0.04,40.47
1,-0.14,0.99,0.04,40.47
1,0.09,0.81,0.06,41.95
1,0.09,0.78,0.12,45.89
1,0.14,0.97,0.12,45.42
1,-0.08,1.20,0.13,42.29
1,-0.08,1.07,0.07,40.02
1,-0.17,1.07,0.07,40.63
1,0.02,0.83,0.06,40.63
1,0.04,0.89,0.09,37.40
1,0.17,0.89,0.07,47.21
1,-0.01,1.15,0.13,47.21
1,-0.17,1.13,0.08,36.88
1,-0.17,1.13,0.06,44.72
1,-0.02,0.88,0.06,45.27
1,0.14,0.86,0.09,40.57
1,0.14,0.84,0.12,42.89
1,0.04,1.09,0.12,43.90
1,-0.15,1.16,0.10,43.90
1,-0.15,0.94,0.06,40.86
1,-0.06,0.94,0.12,40.20
1,0.13,0.83,0.06,40.20
1,0.16,1.02,0.11,40.28
1,0.10,1.02,0.11,39.82
1,-0.12,1.18,0.11,39.82
1,-0.12,1.02,0.05,38.86
1,-0.12,1.01,0.06,42.42
1,0.07,0.82,0.06,42.70
1,0.12,0.94,0.11,41.92
1,0.12,1.17,0.10,39.71
1,-0.09,1.17,0.10,43.72
1,-0.14,1.08,0.07,43.72
1,-0.16,0.86,0.07,40.68
1,0.03,0.86,0.11,45.42
1,0.14,0.89,0.11,45.42
1,-0.02,1.12,0.12,39.44
1,-0.02,1.12,0.08,38.08
1,-0.14,1.12,0.08,37.95
1,-0.01,0.91,0.07,40.30
1,-0.01,0.91,0.10,39.54
1,0.13,0.85,0.10,39.34
1,0.02,1.07,0.12,39.34
1,0.04,1.16,0.09,43.90
1,-0.14,1.16,0.07,38.44
1,-0.05,0.97,0.07,38.44
1,0.12,0.84,0.10,41.01
1,0.12,0.84,0.12,43.51
1,0.05,1.00,0.12,43.51
1,-0.13,1.17,0.10,40.49
1,-0.13,1.16,0.06,41.54
1,-0.10,1.03,0.06,41.90
1,0.10,0.84,0.07,48.16
1,0.10,0.92,0.09,43.01
1,0.10,0.92,0.09,41.79
1,-0.08,1.15,0.09,41.79
1,-0.12,1.08,0.06,39.66
1,-0.12,1.08,0.06,42.54
1,0.04,0.87,0.06,42.54
1,0.11,0.88,0.07,40.78
1,0.11,0.93,0.10,45.57
1,-0.04,1.11,0.10,45.81
1,-0.15,1.12,0.08,45.02
1,-0.15,0.93,0.06,42.47
1,-0.02,0.93,0.06,43.47
1,0.12,0.87,0.10,43.47
1,0.08,1.07,0.12,40.58
1,0.02,1.07,0.08,41.57
1,-0.13,1.13,0.08,41.57
1,-0.06,0.96,0.06,40.23
1,-0.06,0.96,0.09,40.71
1,0.13,0.86,0.09,40.75
1,0.07,1.01,0.14,42.32
1,0.07,1.03,0.11,37.78
1,-0.12,1.16,0.11,40.52
1,-0.08,1.04,0.07,40.52
1,-0.08,0.86,0.09,42.60
1,0.09,0.86,0.10,40.31
1,0.09,0.93,0.10,40.31
1,0.09,1.14,0.11,37.71
1,-0.09,1.14,0.08,39.42
1,-0.12,1.09,0.08,39.42
1,0.06,0.88,0.07,40.03
1,0.06,0.88,0.09,42.66
1,0.11,0.88,0.09,42.49
1,-0.05,1.11,0.10,40.92
1,-0.05,1.12,0.07,41.31
1,-0.13,1.12,0.07,41.82
1,0.00,0.92,0.06,41.82
1,0.06,0.85,0.08,45.33
1,0.12,0.85,0.11,37.91
1,-0.01,1.04,0.11,37.91
1,-0.13,1.16,0.09,46.25
1,-0.13,1.16,0.06,39.60
1,-0.03,0.98,0.06,39.42
1,0.13,0.85,0.09,41.77
1,0.13,0.99,0.11,46.98
1,0.04,0.99,0.11,40.37
1,-0.11,1.15,0.09,40.37
1,-0.08,1.03,0.07,46.61
1,-0.08,1.03,0.08,42.13
1,0.08,0.85,0.08,42.13
1,0.09,0.93,0.10,42.80
1,0.09,0.93,0.10,42.47
1,-0.09,1.14,0.10,42.47
1,-0.12,1.08,0.07,50.81
1,-0.12,1.07,0.08,44.61
1,0.05,0.89,0.08,44.99
1,0.11,0.90,0.09,41.08
1,0.11,1.11,0.11,40.49
1,-0.05,1.11,0.07,41.03
1,-0.13,1.12,0.07,41.03
1,-0.18,0.93,0.07,40.80
1,0.01,0.93,0.09,41.05
1,0.13,0.87,0.09,41.05
1,0.01,1.05,0.12,40.87
1,0.01,1.02,0.09,38.94
1,-0.13,1.14,0.09,38.84
1,-0.03,0.97,0.08,38.05
1,-0.03,0.86,0.09,43.13
1,0.12,0.86,0.09,45.54
1,0.04,1.00,0.12,45.54
1,0.00,1.15,0.11,40.35
1,-0.12,1.15,0.06,43.37
1,-0.09,1.03,0.06,43.37
1,0.08,0.86,0.07,41.51
1,0.08,0.86,0.09,44.37
1,0.08,0.93,0.09,43.93
1,-0.09,1.13,0.09,40.01
1,-0.09,1.13,0.06,38.41
1,-0.11,1.07,0.06,45.45
1,0.05,0.89,0.06,45.45
1,0.05,0.91,0.09,44.20
1,0.12,0.91,0.10,41.07
1,-0.04,1.09,0.10,41.07
1,-0.00,1.10,0.07,42.40
1,-0.13,1.10,0.08,44.55
1,0.00,0.92,0.08,44.55
1,0.12,0.89,0.10,43.11
1,0.12,0.88,0.11,37.83
1,0.01,1.07,0.11,37.64
1,-0.14,1.12,0.08,39.99
1,-0.14,0.96,0.08,43.28
1,-0.04,0.96,0.08,40.43
1,0.11,0.87,0.10,40.43
1,0.10,1.01,0.11,39.52
1,0.03,1.01,0.09,44.55
1,-0.13,1.14,0.09,44.55
1,-0.08,1.03,0.08,44.68
1,-0.08,1.06,0.08,42.62
1,0.09,0.87,0.08,42.23
1,0.08,0.94,0.10,43.02
1,0.08,1.13,0.10,45.80
1,-0.10,1.13,0.10,42.87
1,-0.10,1.08,0.08,42.87
1,-0.07,0.90,0.07,41.54
1,0.06,0.90,0.09,45.44
1,0.11,0.90,0.09,45.44
1,-0.05,1.10,0.10,44.88
1,-0.05,1.10,0.06,38.92
1,-0.13,1.10,0.06,38.92
1,0.02,0.93,0.08,40.44
1,0.02,0.89,0.10,39.48
1,0.13,0.89,0.10,41.19
1,0.01,1.06,0.12,41.19
1,0.01,1.12,0.08,38.79
1,-0.13,1.12,0.07,43.82
1,-0.04,0.96,0.07,43.82
1,-0.02,0.86,0.08,43.38
1,0.11,0.86,0.10,41.84
1,0.04,1.00,0.10,41.84
1,-0.11,1.14,0.08,43.97
1,-0.11,1.14,0.07,41.65
1,-0.07,1.02,0.07,41.93
1,0.09,0.87,0.08,41.14
1,0.09,0.95,0.10,42.18
2,-0.12,1.11,0.08,40.92
2,-0.12,1.12,0.09,41.09
2,0.02,0.93,0.09,40.76
2,0.13,0.88,0.09,44.67
2,0.13,1.05,0.11,39.26
2,-0.01,1.05,0.09,41.74
2,-0.14,1.13,0.09,41.74
2,-0.14,0.98,0.07,38.97
2,-0.02,0.98,0.09,39.63
2,0.11,0.86,0.09,39.63
2,0.03,1.00,0.08,38.23
2,0.03,1.01,0.08,42.22
2,-0.12,1.14,0.08,41.99
2,-0.07,1.02,0.05,38.86
2,-0.07,0.87,0.06,46.20
2,0.09,0.87,0.06,38.60
2,0.08,0.95,0.09,38.60
2,0.11,1.13,0.09,41.18
2,-0.08,1.13,0.07,39.01
2,-0.09,1.07,0.07,39.01
2,0.06,0.90,0.09,39.90
2,0.06,0.90,0.10,41.81
2,0.09,0.91,0.10,41.70
2,-0.07,1.10,0.11,42.48
2,-0.07,1.11,0.09,40.98
2,-0.14,1.11,0.09,38.47
2,0.00,0.94,0.09,38.47
2,0.00,0.87,0.10,44.85
2,0.11,0.87,0.10,43.06
2,0.00,1.05,0.10,43.06
2,-0.12,1.12,0.08,43.42
2,-0.12,1.12,0.07,44.77
2,-0.01,0.97,0.07,44.77
2,0.13,0.88,0.09,42.86
2,0.13,0.94,0.10,49.37
2,0.05,1.00,0.10,49.65
2,-0.11,1.14,0.08,41.03
2,-0.11,1.02,0.07,43.00
2,-0.07,1.02,0.07,42.40
2,0.09,0.87,0.07,42.40
2,0.08,0.96,0.10,42.80
2,0.08,0.96,0.09,42.75
2,-0.09,1.12,0.09,42.75
2,-0.10,1.06,0.07,42.37
2,-0.10,1.02,0.07,40.88
2,0.05,0.90,0.07,41.04
2,0.09,0.92,0.09,41.83
2,0.09,1.09,0.12,41.30
2,-0.07,1.09,0.12,46.21
2,-0.11,1.10,0.08,46.21
2,-0.10,0.93,0.07,42.24
2,0.03,0.93,0.09,40.97
2,0.12,0.89,0.09,40.97
2,-0.02,1.05,0.10,40.50
2,-0.02,1.05,0.08,42.96
2,-0.12,1.13,0.08,42.96
2,-0.02,0.98,0.08,40.99
2,-0.02,0.94,0.10,46.13
2,0.11,0.88,0.10,45.33
2,0.03,1.01,0.10,45.33
2,0.03,1.13,0.10,41.68
2,-0.11,1.13,0.08,44.08
2,-0.06,1.02,0.08,44.08
2,-0.04,0.86,0.08,38.38
2,0.08,0.86,0.10,46.09
2,0.07,0.97,0.10,46.09
2,-0.09,1.11,0.10,44.73
2,-0.09,1.12,0.07,44.24
2,-0.09,1.06,0.07,44.23
2,0.05,0.90,0.09,42.66
2,0.05,0.92,0.09,38.98
2,0.08,0.92,0.09,46.91
2,-0.06,1.09,0.10,46.91
2,-0.06,1.09,0.08,41.42
2,-0.12,1.09,0.08,41.37
2,0.02,0.94,0.08,41.37
2,0.10,0.89,0.09,39.53
2,0.10,0.89,0.10,43.46
2,-0.01,1.05,0.10,43.30
2,-0.12,1.10,0.09,41.74
2,-0.12,1.09,0.07,40.33
2,-0.01,0.97,0.07,41.50
2,0.11,0.89,0.09,41.50
2,0.11,1.00,0.11,37.19
2,0.03,1.00,0.09,40.61
2,-0.11,1.12,0.09,40.61
2,-0.05,1.02,0.07,48.08
2,-0.05,1.02,0.08,43.00
2,0.09,0.88,0.08,43.00
2,0.07,0.96,0.10,42.17
2,0.07,0.98,0.09,42.64
2,-0.09,1.11,0.09,42.60
2,-0.08,1.06,0.08,41.82
2,-0.08,0.90,0.08,38.54
2,0.06,0.90,0.08,45.32
2,0.09,0.92,0.10,45.32
2,0.12,1.08,0.10,39.94
2,-0.07,1.08,0.09,41.13
2,-0.09,1.10,0.09,41.13
2,0.03,0.93,0.07,40.80
2,0.03,0.89,0.09,43.95
2,0.10,0.89,0.09,43.94
2,-0.01,1.05,0.10,42.37
2,-0.01,1.11,0.08,40.15
2,-0.11,1.11,0.08,38.30
2,-0.01,0.97,0.06,38.30
2,-0.02,0.88,0.09,40.96
2,0.10,0.88,0.11,39.93
2,0.02,1.00,0.11,39.93
2,-0.10,1.11,0.08,41.59
2,-0.10,1.11,0.08,39.24
2,-0.05,1.01,0.08,39.24
2,0.09,0.89,0.08,42.44
2,0.09,0.91,0.09,46.77
2,0.06,0.97,0.09,39.04
2,-0.08,1.10,0.10,39.04
2,-0.08,1.05,0.07,40.95
2,-0.09,1.05,0.09,46.94
2,0.05,0.91,0.09,46.94
2,0.03,0.94,0.11,38.23
2,0.09,0.94,0.10,37.18
2,-0.05,1.09,0.10,37.18
2,-0.11,1.07,0.08,42.37
2,-0.11,1.11,0.09,42.04
2,0.02,0.92,0.09,41.66
2,0.11,0.92,0.10,39.31
2,0.11,1.05,0.10,38.80
2,-0.01,1.05,0.10,43.92
2,-0.10,1.10,0.08,43.92
2,-0.07,0.97,0.07,45.88
2,-0.01,0.97,0.08,42.64
2,0.10,0.88,0.08,42.64
2,0.03,1.01,0.10,43.53
2,0.03,1.01,0.08,45.43
2,-0.11,1.11,0.08,45.84
2,-0.05,1.02,0.07,41.14
2,-0.05,1.02,0.07,46.25
2,0.09,0.90,0.07,41.64
2,0.05,0.97,0.09,41.64
2,0.05,1.11,0.08,45.13
2,-0.08,1.11,0.07,45.08
2,-0.08,1.06,0.07,45.08
2,0.05,0.91,0.08,42.75
2,0.05,0.91,0.10,42.72
2,0.08,0.93,0.10,42.72
2,-0.06,1.09,0.10,41.20
2,-0.06,1.08,0.08,41.84
2,-0.10,1.08,0.08,41.67
2,0.03,0.94,0.09,40.89
2,0.03,0.90,0.10,41.85
2,0.10,0.90,0.10,40.88
2,-0.02,1.06,0.10,40.88
2,-0.05,1.10,0.08,46.75
2,-0.11,1.10,0.08,42.66
2,-0.01,0.98,0.08,42.66
2,0.10,0.89,0.09,45.31
2,0.10,0.88,0.11,43.20
2,0.01,1.01,0.11,43.32
2,-0.10,1.12,0.09,42.53
2,-0.10,1.02,0.08,41.59
2,-0.05,1.02,0.08,43.75
2,0.08,0.90,0.07,43.75
2,0.12,0.97,0.10,40.32
2,0.06,0.97,0.08,44.95
2,-0.09,1.10,0.08,44.95
2,-0.07,1.05,0.07,42.39
2,-0.07,1.05,0.08,36.57
2,0.06,0.91,0.08,36.49
2,0.08,0.93,0.09,42.75
2,0.08,0.89,0.09,50.84
2,-0.06,1.07,0.09,45.15
2,-0.11,1.08,0.07,45.15
2,-0.11,0.94,0.08,37.84
2,0.02,0.94,0.10,42.18
2,0.10,0.90,0.10,42.18
2,0.10,1.05,0.11,44.71
2,-0.02,1.05,0.08,40.81
2,-0.10,1.10,0.08,40.81
2,-0.00,0.98,0.08,40.02
2,-0.00,0.96,0.08,42.01
2,0.10,0.90,0.08,41.76
2,0.01,1.01,0.12,42.54
2,0.01,1.11,0.09,40.02
2,-0.11,1.11,0.09,40.36
2,-0.05,1.01,0.08,40.36
2,-0.04,0.90,0.08,37.70
2,0.08,0.90,0.09,48.84
2,0.05,0.97,0.09,48.84
2,-0.08,1.10,0.09,41.96
2,-0.08,1.10,0.07,45.50
2,-0.07,1.04,0.07,45.88
2,0.06,0.91,0.08,41.97
2,0.06,0.93,0.10,44.66
2,0.08,0.93,0.10,45.09
2,-0.06,1.08,0.09,45.09
2,-0.06,1.08,0.08,39.89
2,-0.09,1.08,0.08,43.28
2,0.02,0.95,0.08,43.28
2,0.09,0.91,0.09,38.45
2,0.09,0.91,0.10,42.22
2,-0.03,1.04,0.10,42.22
2,-0.11,1.10,0.07,44.48
2,-0.11,1.10,0.07,38.80
2,0.00,0.97,0.07,38.83
2,0.10,0.90,0.10,38.83
2,0.10,1.01,0.10,45.62
2,0.03,1.01,0.10,40.50
2,-0.10,1.10,0.09,40.50
2,-0.11,1.00,0.08,42.24
2,-0.04,1.00,0.07,44.18
2,0.08,0.90,0.07,44.18
2,0.04,0.97,0.10,42.30
2,0.04,0.98,0.10,42.06
2,-0.09,1.11,0.10,42.13
2,-0.06,1.04,0.07,40.56
2,-0.06,0.92,0.09,38.87
2,0.06,0.92,0.09,43.88
2,0.07,0.94,0.10,43.88
2,0.07,1.09,0.10,44.72
2,-0.06,1.09,0.07,43.45
2,-0.09,1.08,0.07,43.45
2,0.04,0.94,0.07,39.23
2,0.04,0.94,0.09,44.53
2,0.09,0.91,0.09,44.53
2,-0.02,1.05,0.10,43.63
2,-0.02,1.03,0.08,42.85
2,-0.10,1.09,0.08,39.95
2,-0.00,0.97,0.10,39.95
2,-0.00,0.91,0.09,44.87
2,0.09,0.91,0.10,41.96
2,0.01,1.01,0.10,41.96
2,0.02,1.10,0.09,39.61
2,-0.10,1.10,0.07,41.00
3,0.06,0.94,0.10,43.14
3,0.07,0.94,0.10,40.02
3,-0.07,1.08,0.10,40.02
3,-0.09,1.07,0.08,41.57
3,-0.09,1.07,0.09,43.84
3,0.04,0.95,0.09,43.84
3,0.08,0.91,0.09,40.26
3,0.08,0.92,0.10,41.63
3,-0.02,1.05,0.10,43.71
3,-0.10,1.09,0.08,43.71
3,-0.10,0.98,0.07,41.93
3,-0.01,0.98,0.09,46.86
3,0.09,0.90,0.09,46.86
3,0.07,1.02,0.09,44.63
3,0.00,1.02,0.09,42.32
3,-0.09,1.10,0.09,42.32
3,-0.04,1.01,0.09,44.23
3,-0.04,1.03,0.08,48.16
3,0.08,0.91,0.08,48.05
3,0.04,0.98,0.09,48.05
3,0.04,1.10,0.09,45.20
3,-0.08,1.10,0.09,39.70
3,-0.06,1.04,0.07,39.70
3,-0.01,0.92,0.08,45.25
3,0.06,0.92,0.10,43.44
3,0.05,0.94,0.10,43.44
3,-0.06,1.08,0.09,35.28
3,-0.06,1.08,0.08,40.11
3,-0.08,1.07,0.08,40.16
3,0.03,0.95,0.08,40.94
3,0.03,0.98,0.09,38.85
3,0.08,0.92,0.09,42.63
3,-0.02,1.05,0.10,42.63
3,-0.02,1.09,0.07,44.38
3,-0.10,1.09,0.08,43.87
3,-0.00,0.97,0.08,43.87
3,-0.05,0.91,0.09,40.13
3,0.08,0.91,0.10,43.57
3,-0.01,1.01,0.10,43.57
3,-0.10,1.10,0.09,40.62
3,-0.10,1.07,0.08,39.35
3,-0.04,1.01,0.08,39.86
3,0.07,0.90,0.09,45.35
3,0.07,0.98,0.10,43.03
3,0.03,0.98,0.10,42.70
3,-0.08,1.10,0.09,42.70
3,-0.12,1.04,0.09,39.19
3,-0.06,1.04,0.09,45.19
3,0.06,0.91,0.09,45.19
3,0.06,0.95,0.10,39.51
3,0.06,0.95,0.10,44.16
3,-0.06,1.08,0.10,44.57
3,-0.08,1.07,0.09,39.09
3,-0.08,1.07,0.08,40.18
3,0.03,0.95,0.08,43.79
3,0.08,0.92,0.09,43.79
3,0.08,1.04,0.11,40.20
3,-0.04,1.04,0.08,38.77
3,-0.10,1.09,0.08,38.77
3,0.00,0.98,0.07,40.47
3,0.00,0.98,0.09,42.52
3,0.09,0.91,0.09,42.52
3,0.01,1.01,0.11,45.12
3,0.01,1.03,0.07,41.70
3,-0.08,1.09,0.07,42.15
3,-0.03,1.00,0.08,43.71
3,-0.03,0.91,0.08,40.64
3,0.08,0.91,0.08,45.33
3,0.03,0.97,0.09,45.33
3,0.04,1.09,0.08,46.85
3,-0.09,1.09,0.08,43.95
3,-0.06,1.05,0.08,43.95
3,0.06,0.93,0.09,39.09
3,0.06,0.89,0.09,42.40
3,0.06,0.95,0.09,42.83
3,-0.06,1.08,0.10,44.39
3,-0.06,1.07,0.07,43.23
3,-0.08,1.07,0.07,42.71
3,0.04,0.94,0.09,42.71
3,0.02,0.92,0.10,42.22
3,0.08,0.92,0.08,43.63
3,-0.03,1.05,0.08,43.63
3,-0.09,1.08,0.08,46.33
3,-0.09,1.08,0.08,41.09
3,0.01,0.97,0.08,41.37
3,0.09,0.91,0.09,44.50
3,0.09,0.89,0.11,42.50
3,0.01,1.02,0.11,43.33
3,-0.09,1.09,0.09,43.33
3,-0.09,1.00,0.07,43.67
3,-0.03,1.00,0.09,40.98
3,0.06,0.91,0.09,40.98
3,0.02,0.98,0.09,38.92
3,0.02,0.98,0.10,41.62
3,-0.10,1.08,0.10,41.62
3,-0.06,1.03,0.07,45.20
3,-0.06,1.05,0.08,41.24
3,0.07,0.92,0.08,40.90
3,0.08,0.95,0.10,40.12
3,0.08,1.08,0.10,42.12
3,-0.05,1.08,0.10,42.02
3,-0.08,1.06,0.09,42.02
3,-0.10,0.94,0.09,43.13
3,0.03,0.94,0.10,46.46
3,0.05,0.92,0.10,46.46
3,-0.04,1.05,0.10,39.92
3,-0.04,1.05,0.09,39.86
3,-0.09,1.07,0.09,39.22
3,-0.01,0.97,0.09,41.57
3,-0.01,0.98,0.09,39.55
3,0.08,0.91,0.09,41.83
3,0.01,1.01,0.10,41.83
3,0.01,1.09,0.08,44.82
3,-0.09,1.09,0.07,40.35
3,-0.03,1.00,0.07,40.35
3,0.08,0.91,0.08,43.12
3,0.08,0.91,0.10,40.73
3,0.04,0.98,0.10,40.73
3,-0.08,1.08,0.09,41.33
3,-0.08,1.10,0.08,42.31
3,-0.05,1.03,0.08,42.48
3,0.06,0.92,0.08,44.04
3,0.06,0.96,0.09,35.69
3,0.06,0.96,0.09,35.50
3,-0.06,1.07,0.10,35.50
3,-0.08,1.05,0.08,36.35
3,-0.08,1.05,0.08,42.71
3,0.03,0.95,0.08,42.71
3,0.07,0.93,0.10,41.98
3,0.07,0.93,0.10,40.54
3,-0.04,1.06,0.10,39.95
3,-0.08,1.08,0.08,43.09
3,-0.08,0.97,0.08,39.93
3,0.00,0.97,0.08,40.24
3,0.08,0.92,0.08,40.24
3,0.07,1.02,0.09,40.72
3,0.01,1.02,0.08,37.93
3,-0.08,1.09,0.08,37.93
3,-0.03,1.01,0.08,41.60
3,-0.03,1.01,0.08,40.57
3,0.08,0.91,0.08,40.19
3,0.03,0.98,0.09,40.19
3,0.03,0.96,0.09,39.66
3,-0.08,1.08,0.09,41.01
3,-0.06,1.02,0.08,41.01
3,-0.06,0.92,0.09,44.31
3,0.04,0.92,0.09,45.32
3,0.06,0.95,0.09,45.32
3,0.06,1.08,0.10,42.90
3,-0.06,1.08,0.07,47.42
3,-0.08,1.06,0.07,47.42
3,0.04,0.94,0.09,44.56
3,0.04,0.99,0.09,41.50
3,0.07,0.93,0.09,42.02
3,-0.04,1.06,0.09,46.72
3,-0.04,1.08,0.08,45.00
3,-0.09,1.08,0.08,42.85
3,0.01,0.97,0.09,42.85
3,0.02,0.92,0.09,42.51
3,0.08,0.92,0.10,43.43
3,-0.01,1.03,0.10,43.43
3,-0.09,1.08,0.08,40.32
3,-0.09,1.08,0.08,38.28
3,-0.02,1.00,0.08,38.22
3,0.07,0.91,0.09,46.06
3,0.07,0.92,0.10,40.73
3,0.02,0.98,0.10,42.43
3,-0.08,1.09,0.09,42.43
3,-0.11,1.03,0.07,42.65
3,-0.05,1.03,0.08,40.23
3,0.04,0.92,0.08,40.23
3,0.05,0.96,0.10,43.27
3,0.05,0.96,0.10,45.20
3,-0.06,1.07,0.10,45.20
3,-0.07,1.05,0.09,41.21
3,-0.07,1.00,0.08,41.03
3,0.04,0.94,0.08,40.92
3,0.07,0.94,0.09,46.40
3,0.07,1.06,0.09,39.54
3,-0.02,1.06,0.09,41.97
3,-0.08,1.08,0.07,41.97
3,-0.11,0.97,0.08,42.73
3,0.01,0.97,0.09,43.73
3,0.07,0.92,0.09,43.73
3,-0.00,1.03,0.10,40.89
3,-0.00,1.03,0.09,38.36
3,-0.09,1.09,0.09,38.87
3,-0.02,1.00,0.09,42.01
3,-0.02,0.92,0.09,42.55
3,0.07,0.92,0.09,42.23
3,0.03,0.99,0.10,42.23
3,0.04,1.09,0.09,39.22
3,-0.08,1.09,0.08,42.80
3,-0.05,1.03,0.08,42.80
3,0.05,0.92,0.09,42.03
3,0.05,0.92,0.10,38.74
3,0.05,0.96,0.10,38.80
3,-0.05,1.06,0.09,45.85
3,-0.05,1.11,0.07,45.42
3,-0.07,1.04,0.07,47.05
3,0.03,0.94,0.08,47.05
3,0.03,0.94,0.09,43.44
3,0.07,0.94,0.10,46.46
3,-0.05,1.06,0.10,46.46
3,-0.03,1.07,0.09,41.47
3,-0.09,1.07,0.09,41.74
3,0.00,0.97,0.09,41.74
3,0.08,0.92,0.09,42.14
3,0.08,0.89,0.09,44.03
3,0.00,1.02,0.09,44.57
3,-0.07,1.07,0.07,43.00
3,-0.07,0.99,0.07,38.43
3,-0.02,0.99,0.07,39.10
3,0.07,0.92,0.08,39.10
3,0.09,0.99,0.09,50.92
3,0.03,0.99,0.09,44.23
3,-0.09,1.09,0.09,44.23
3,-0.06,1.03,0.09,48.57
3,-0.06,1.03,0.08,40.60
3,0.06,0.93,0.08,40.44
3,0.05,0.96,0.09,41.23
3,0.05,0.95,0.09,44.44
3,-0.06,1.07,0.09,41.62
3,-0.07,1.05,0.09,41.62
3,-0.08,0.94,0.09,37.72
3,0.04,0.94,0.10,50.39
3,0.08,0.93,0.10,50.39
3,-0.03,1.05,0.09,37.89
3,-0.03,1.05,0.08,40.62
3,-0.07,1.07,0.08,40.62
3,0.00,0.97,0.08,42.38
3,0.00,0.98,0.09,44.77
3,0.07,0.92,0.09,44.78
4,-0.08,1.08,0.09,44.27
4,-0.05,1.02,0.09,44.27
4,0.05,0.92,0.10,41.09
4,0.05,0.91,0.10,40.37
4,0.04,0.97,0.10,40.06
4,-0.07,1.07,0.10,41.62
4,-0.07,1.05,0.08,45.80
4,-0.07,1.05,0.08,45.65
4,0.03,0.95,0.09,45.65
4,0.01,0.95,0.10,43.82
4,0.07,0.95,0.11,40.99
4,-0.02,1.06,0.11,40.99
4,-0.07,1.05,0.07,46.32
4,-0.07,1.00,0.08,47.23
4,0.00,0.94,0.08,47.12
4,0.07,0.93,0.09,44.77
4,0.07,1.04,0.10,40.72
4,0.01,1.04,0.10,39.99
4,-0.07,1.08,0.07,39.99
4,-0.09,0.98,0.06,41.59
4,-0.03,0.98,0.02,46.29
4,0.06,0.91,0.08,46.29
4,0.04,1.01,0.11,40.45
4,0.04,1.01,0.09,40.58
4,-0.06,1.10,0.09,40.33
4,-0.06,1.02,0.08,42.68
4,-0.06,1.05,0.08,40.08
4,0.06,0.92,0.08,41.55
4,0.05,0.96,0.10,41.55
4,0.05,1.07,0.10,43.36
4,-0.06,1.07,0.08,39.71
4,-0.07,1.05,0.08,39.71
4,-0.10,0.93,0.09,38.47
4,0.03,0.93,0.09,40.34
4,0.07,0.94,0.09,40.34
4,-0.02,1.05,0.11,44.87
4,-0.02,1.00,0.08,37.90
4,-0.08,1.06,0.08,38.03
4,0.01,0.96,0.08,38.82
4,0.01,0.92,0.09,38.53
4,0.08,0.92,0.09,39.21
4,0.01,1.03,0.10,39.21
4,0.04,1.08,0.09,47.62
4,-0.08,1.08,0.09,43.17
4,-0.03,0.99,0.09,43.17
4,0.06,0.92,0.09,37.56
4,0.06,0.92,0.10,39.35
4,0.03,0.99,0.10,39.48
4,-0.08,1.08,0.09,38.70
4,-0.08,1.08,0.08,39.71
4,-0.04,1.02,0.08,39.96
4,0.05,0.93,0.08,39.96
4,0.04,0.97,0.09,40.30
4,0.04,0.97,0.09,38.95
4,-0.05,1.07,0.09,38.95
4,-0.07,1.05,0.09,38.15
4,-0.07,1.05,0.08,40.59
4,0.03,0.93,0.08,40.59
4,0.07,0.94,0.09,40.63
4,0.07,0.99,0.10,44.27
4,-0.03,1.05,0.10,44.53
4,-0.07,1.08,0.08,40.62
4,-0.07,0.97,0.08,42.40
4,0.00,0.97,0.08,48.33
4,0.08,0.91,0.09,48.33
4,0.12,1.03,0.10,42.93
4,-0.00,1.03,0.08,42.80
4,-0.07,1.08,0.08,42.80
4,-0.02,0.99,0.09,41.48
4,-0.02,0.98,0.10,42.50
4,0.06,0.92,0.10,42.89
4,0.02,1.00,0.09,42.89
4,0.02,1.08,0.08,38.24
4,-0.07,1.08,0.08,39.96
4,-0.04,1.02,0.08,39.96
4,-0.01,0.92,0.09,42.95
4,0.05,0.92,0.10,46.32
4,0.06,0.97,0.10,46.32
4,-0.04,1.08,0.10,41.50
4,-0.04,1.08,0.08,42.57
4,-0.07,1.04,0.08,42.33
4,0.02,0.93,0.08,42.33
4,0.02,0.89,0.10,41.40
4,0.07,0.95,0.10,44.69
4,-0.02,1.07,0.10,44.69
4,-0.02,1.06,0.08,41.86
4,-0.08,1.06,0.08,45.78
4,-0.01,0.95,0.08,45.78
4,-0.06,0.93,0.09,43.24
4,0.07,0.93,0.10,43.89
4,0.01,1.05,0.10,43.89
4,-0.08,1.07,0.09,40.31
4,-0.08,1.10,0.07,48.25
4,-0.03,0.97,0.07,48.01
4,0.06,0.92,0.09,40.96
4,0.06,1.00,0.10,38.89
4,0.03,1.00,0.10,40.54
4,-0.07,1.09,0.09,40.54
4,-0.11,1.01,0.08,39.68
4,-0.05,1.01,0.08,41.64
4,0.05,0.93,0.08,41.64
4,0.05,0.98,0.10,41.47
4,0.05,0.98,0.10,43.40
4,-0.05,1.07,0.10,43.17
4,-0.06,1.04,0.08,41.60
4,-0.06,1.05,0.08,41.09
4,0.03,0.93,0.08,41.48
4,0.06,0.94,0.09,41.48
4,0.06,1.06,0.10,50.48
4,-0.03,1.06,0.08,44.95
4,-0.07,1.07,0.08,44.95
4,-0.00,0.97,0.08,42.77
4,-0.00,0.97,0.08,39.97
4,0.07,0.93,0.08,39.97
4,-0.00,1.03,0.10,40.81
4,-0.00,1.02,0.08,42.62
4,-0.08,1.09,0.08,42.68
4,-0.02,0.99,0.08,48.16
4,-0.02,0.92,0.09,42.40
4,0.06,0.92,0.09,43.71
4,0.01,1.00,0.10,43.71
4,0.06,1.07,0.09,38.76
4,-0.07,1.07,0.07,36.92
4,-0.04,1.01,0.07,36.92
4,0.05,0.92,0.08,48.37
4,0.05,0.91,0.09,37.86
4,0.05,0.97,0.09,38.28
4,-0.05,1.07,0.09,39.06
4,-0.05,1.03,0.08,41.68
4,-0.06,1.03,0.08,43.67
4,0.03,0.93,0.08,43.67
4,0.06,0.94,0.09,46.88
4,0.06,0.94,0.09,41.81
4,-0.03,1.06,0.09,41.81
4,-0.08,1.05,0.08,39.38
4,-0.08,1.05,0.08,39.46
4,0.01,0.96,0.08,39.46
4,0.06,0.93,0.10,43.27
4,0.06,0.91,0.11,41.03
4,-0.02,1.04,0.11,37.77
4,-0.07,1.08,0.08,37.77
4,-0.07,0.98,0.09,40.98
4,-0.02,0.98,0.09,36.59
4,0.06,0.93,0.09,36.59
4,0.01,1.00,0.09,43.95
4,0.01,1.00,0.09,43.28
4,-0.07,1.08,0.09,43.28
4,-0.04,1.02,0.08,41.37
4,-0.04,1.05,0.09,45.23
4,0.05,0.92,0.09,44.97
4,0.05,0.98,0.10,44.19
4,0.05,1.07,0.08,41.37
4,-0.05,1.07,0.08,40.70
4,-0.06,1.05,0.08,40.70
4,-0.04,0.94,0.08,37.85
4,0.03,0.94,0.09,43.26
4,0.06,0.96,0.09,43.26
4,-0.04,1.06,0.09,39.73
4,-0.04,1.06,0.07,41.42
4,-0.07,1.06,0.07,41.05
4,0.02,0.96,0.08,45.75
4,0.02,0.98,0.08,40.14
4,0.07,0.92,0.08,44.29
4,-0.01,1.03,0.09,44.29
4,-0.01,1.07,0.08,39.27
4,-0.07,1.07,0.08,38.70
4,-0.01,0.99,0.08,38.70
4,0.06,0.93,0.09,38.99
4,0.06,0.93,0.10,42.96
4,0.01,1.00,0.10,42.96
4,-0.06,1.08,0.09,40.82
4,-0.06,1.08,0.07,37.09
4,-0.04,1.02,0.07,37.48
4,0.04,0.93,0.09,42.18
4,0.04,0.98,0.10,46.01
4,0.03,0.98,0.10,44.79
4,-0.06,1.08,0.10,44.79
4,-0.00,1.04,0.09,46.16
4,-0.06,1.04,0.07,42.53
4,0.03,0.95,0.07,42.53
4,0.06,0.95,0.10,45.39
4,0.06,0.98,0.09,40.62
4,-0.02,1.05,0.09,40.45
4,-0.06,1.05,0.08,44.37
4,-0.06,0.96,0.08,42.94
4,0.02,0.96,0.08,42.16
4,0.06,0.94,0.10,42.16
4,0.07,1.03,0.10,40.63
4,0.01,1.03,0.08,43.22
4,-0.08,1.08,0.08,43.22
4,-0.01,0.98,0.08,41.93
4,-0.01,0.98,0.08,47.19
4,0.05,0.93,0.08,47.56
4,0.01,1.00,0.09,38.94
4,0.01,1.02,0.08,43.33
4,-0.07,1.08,0.08,44.09
4,-0.04,1.02,0.09,44.09
4,-0.04,0.93,0.08,46.11
4,0.05,0.93,0.10,45.88
4,0.03,0.98,0.10,45.88
4,0.01,1.07,0.09,37.36
4,-0.06,1.07,0.08,47.47
4,-0.06,1.02,0.08,47.47
4,0.03,0.95,0.08,44.46
4,0.03,0.95,0.10,44.83
4,0.05,0.95,0.10,44.69
4,-0.03,1.06,0.10,43.12
4,-0.03,1.05,0.09,42.38
4,-0.07,1.05,0.09,47.87
4,0.01,0.96,0.09,47.87
4,0.04,0.94,0.10,43.20
4,0.04,0.94,0.09,44.57
4,-0.01,1.02,0.09,44.57
4,-0.08,1.07,0.08,38.77
4,-0.08,1.07,0.08,39.36
4,-0.01,0.99,0.08,39.74
4,0.06,0.94,0.09,48.36
4,0.06,0.88,0.09,38.30
4,0.02,1.00,0.09,44.62
4,-0.06,1.07,0.09,44.62
4,-0.06,1.00,0.08,47.68
4,-0.03,1.00,0.09,41.62
4,0.05,0.94,0.09,41.62
4,0.04,0.97,0.09,42.97
4,0.04,0.97,0.08,42.86
4,-0.06,1.06,0.08,42.86
4,-0.05,1.03,0.07,40.85
4,-0.05,1.01,0.08,40.23
4,0.04,0.95,0.08,40.03
4,0.06,0.96,0.08,38.46
4,0.06,1.05,0.10,40.77
4,-0.04,1.05,0.10,41.62
4,-0.07,1.04,0.09,41.62
5,0.06,0.93,0.09,38.00
5,0.02,1.01,0.09,38.78
5,0.02,1.07,0.09,43.79
5,-0.07,1.07,0.08,42.07
5,-0.04,1.01,0.08,42.07
5,-0.02,0.94,0.08,42.63
5,0.04,0.94,0.09,37.80
5,0.03,0.97,0.09,37.80
5,-0.06,1.06,0.09,40.38
5,-0.06,1.03,0.08,40.64
5,-0.05,1.03,0.08,40.46
5,0.04,0.95,0.09,43.59
5,0.04,0.96,0.09,38.97
5,0.05,0.96,0.09,38.72
5,-0.04,1.05,0.10,38.72
5,-0.01,1.05,0.09,39.17
5,-0.07,1.05,0.08,41.60
5,0.01,0.96,0.08,41.60
5,0.06,0.94,0.09,44.48
5,0.06,0.94,0.09,46.74
5,-0.03,1.03,0.09,46.93
5,-0.07,1.06,0.08,43.01
5,-0.07,1.04,0.08,44.03
5,-0.02,0.98,0.08,49.77
5,0.07,0.94,0.08,49.77
5,0.07,1.01,0.10,49.49
5,0.02,1.01,0.08,47.32
5,-0.06,1.06,0.08,47.32
5,-0.03,1.01,0.07,43.59
5,-0.03,1.01,0.09,38.17
5,0.05,0.94,0.09,38.17
5,0.02,0.98,0.09,45.23
5,0.02,0.94,0.09,40.85
5,-0.06,1.07,0.09,41.44
5,-0.06,1.02,0.07,44.58
5,-0.06,0.95,0.08,42.15
5,0.03,0.95,0.08,42.85
5,0.05,0.96,0.08,42.85
5,0.02,1.05,0.09,39.82
5,-0.04,1.05,0.08,44.28
5,-0.06,1.04,0.08,44.28
5,0.02,0.97,0.09,42.45
5,0.02,0.95,0.10,42.35
5,0.06,0.95,0.10,42.50
5,-0.01,1.03,0.10,44.85
5,-0.01,1.06,0.09,47.04
5,-0.07,1.06,0.09,42.22
5,-0.01,0.99,0.09,42.22
5,-0.00,0.93,0.08,43.79
5,0.06,0.93,0.10,41.55
5,0.01,1.01,0.10,41.55
5,-0.06,1.06,0.09,40.36
5,-0.06,1.06,0.08,40.94
5,-0.03,1.00,0.08,41.41
5,0.05,0.94,0.08,41.41
5,0.05,0.91,0.09,39.68
5,0.02,0.98,0.09,41.71
5,-0.06,1.06,0.08,41.71
5,-0.06,1.03,0.07,43.62
5,-0.05,1.03,0.08,43.47
5,0.03,0.94,0.08,43.47
5,0.04,0.97,0.08,41.92
5,0.04,0.97,0.10,42.58
5,-0.04,1.05,0.10,42.58
5,-0.06,1.04,0.08,45.44
5,-0.06,1.02,0.09,44.67
5,0.02,0.96,0.09,45.12
5,0.05,0.95,0.10,39.63
5,0.05,1.03,0.10,43.10
5,-0.01,1.03,0.10,42.93
5,-0.07,1.05,0.09,42.93
5,-0.07,0.98,0.08,47.12
5,-0.01,0.98,0.10,41.83
5,0.06,0.94,0.10,41.83
5,0.00,1.01,0.10,45.31
5,0.00,1.01,0.09,44.57
5,-0.06,1.06,0.09,44.02
5,-0.03,1.01,0.08,45.59
5,-0.03,1.01,0.08,42.90
5,0.04,0.94,0.08,44.36
5,0.03,0.99,0.09,44.36
5,0.03,1.05,0.09,41.03
5,-0.06,1.05,0.07,41.09
5,-0.05,1.02,0.07,41.09
5,0.03,0.95,0.08,43.84
5,0.03,0.95,0.10,37.41
5,0.04,0.97,0.10,37.41
5,-0.04,1.05,0.09,43.42
5,-0.04,1.04,0.08,45.33
5,-0.06,1.04,0.08,45.32
5,0.02,0.97,0.08,42.97
5,0.02,0.95,0.08,43.89
5,0.06,0.95,0.08,38.17
5,-0.00,1.03,0.09,38.17
5,-0.06,1.06,0.08,49.38
5,-0.06,1.06,0.08,40.15
5,-0.01,0.98,0.08,40.15
5,0.05,0.94,0.08,44.80
5,0.05,0.94,0.08,45.38
5,0.00,1.00,0.08,46.02
5,-0.07,1.06,0.09,41.32
5,-0.07,1.01,0.08,42.51
5,-0.04,1.01,0.08,43.29
5,0.04,0.93,0.09,43.29
5,0.03,1.00,0.10,43.89
5,0.03,1.00,0.10,37.94
5,-0.06,1.06,0.10,37.94
5,-0.04,1.03,0.09,41.75
5,-0.04,1.03,0.09,43.33
5,0.03,0.95,0.09,43.78
5,0.04,0.97,0.09,43.78
5,0.04,0.98,0.09,41.23
5,-0.03,1.04,0.09,45.36
5,-0.07,1.04,0.08,45.36
5,-0.07,0.96,0.08,41.99
5,0.02,0.96,0.09,38.60
5,0.06,0.94,0.09,38.60
5,0.05,1.03,0.08,45.78
5,-0.01,1.03,0.08,39.76
5,-0.06,1.06,0.08,39.76
5,-0.00,0.98,0.08,47.93
5,-0.00,0.95,0.09,43.40
5,0.05,0.95,0.09,43.56
5,0.01,1.01,0.09,44.35
5,0.01,1.06,0.09,46.07
5,-0.07,1.06,0.09,41.22
5,-0.02,1.00,0.08,41.22
5,-0.00,0.94,0.09,44.68
5,0.06,0.94,0.10,46.72
5,0.03,0.99,0.10,46.72
5,-0.05,1.05,0.08,39.53
5,-0.05,1.05,0.07,41.36
5,-0.04,1.01,0.07,41.23
5,0.03,0.94,0.08,39.66
5,0.03,0.98,0.09,43.86
5,0.04,0.98,0.09,42.15
5,-0.04,1.05,0.09,42.15
5,-0.04,1.03,0.07,37.68
5,-0.07,1.03,0.08,40.18
5,0.01,0.96,0.08,40.18
5,0.05,0.95,0.09,42.11
5,0.05,0.95,0.09,43.17
5,-0.02,1.03,0.09,43.17
5,-0.07,1.06,0.09,41.26
5,-0.07,1.05,0.09,45.36
5,0.01,0.99,0.09,44.71
5,0.06,0.94,0.11,45.49
5,0.06,1.02,0.10,41.97
5,0.01,1.02,0.10,43.70
5,-0.07,1.06,0.09,43.70
5,-0.08,1.00,0.08,38.39
5,-0.02,1.00,0.08,45.32
5,0.05,0.94,0.08,45.32
5,0.01,0.98,0.09,38.41
5,0.01,0.99,0.08,41.61
5,-0.05,1.06,0.08,41.46
5,-0.05,1.03,0.07,37.54
5,-0.05,0.94,0.08,39.76
5,0.03,0.94,0.08,37.73
5,0.04,0.96,0.07,37.73
5,0.03,1.04,0.08,42.85
5,-0.04,1.04,0.08,40.63
5,-0.06,1.04,0.08,40.63
5,0.01,0.96,0.08,41.93
5,0.01,0.96,0.09,41.03
5,0.04,0.96,0.09,41.03
5,-0.03,1.03,0.10,43.63
5,-0.03,1.05,0.09,40.61
5,-0.07,1.05,0.09,43.01
5,0.00,0.98,0.09,43.01
5,0.00,0.95,0.09,45.43
5,0.06,0.95,0.10,45.15
5,0.00,1.01,0.10,45.15
5,0.05,1.06,0.09,37.22
5,-0.07,1.06,0.08,45.14
5,-0.02,1.00,0.08,45.14
5,0.03,0.94,0.09,42.39
5,0.03,1.00,0.09,44.61
5,0.02,1.00,0.09,44.85
5,-0.05,1.06,0.09,40.93
5,-0.05,1.02,0.08,44.53
5,-0.04,1.02,0.08,43.64
5,0.04,0.95,0.09,43.64
5,0.04,0.97,0.09,38.86
5,0.04,0.97,0.09,46.54
5,-0.03,1.05,0.09,46.54
5,-0.05,1.03,0.07,44.09
5,-0.05,1.03,0.08,40.80
5,0.01,0.95,0.08,41.26
5,0.05,0.96,0.09,42.83
5,0.05,0.97,0.09,44.03
5,-0.03,1.03,0.09,41.90
5,-0.07,1.05,0.08,41.90
5,-0.07,0.98,0.08,45.18
5,-0.01,0.98,0.09,51.04
5,0.06,0.95,0.09,51.04
5,0.00,1.01,0.09,46.61
5,0.00,1.01,0.09,43.17
5,-0.06,1.06,0.09,43.17
5,-0.02,1.00,0.09,44.05
5,-0.02,0.94,0.08,38.62
5,0.04,0.94,0.08,38.66
5,0.02,0.99,0.10,41.79
5,0.02,1.06,0.09,44.08
5,-0.05,1.06,0.09,42.71
5,-0.04,1.02,0.09,42.71
5,-0.03,0.95,0.10,43.43
5,0.03,0.95,0.09,44.83
5,0.03,0.97,0.09,44.83
5,-0.04,1.05,0.10,40.24
5,-0.04,1.05,0.08,43.06
5,-0.05,1.03,0.08,43.07
5,0.02,0.96,0.08,43.85
5,0.02,0.95,0.08,42.88
5,0.04,0.95,0.08,42.02
5,-0.02,1.04,0.09,42.02
5,-0.05,1.05,0.08,42.58
5,-0.05,1.05,0.08,45.89
5,0.00,0.98,0.08,45.89
5,0.05,0.94,0.08,41.43
5,0.05,0.94,0.09,43.23
5,-0.00,1.01,0.09,43.77
5,-0.05,1.06,0.07,39.86
5,-0.05,1.05,0.08,41.15
5,-0.02,0.99,0.08,39.48
5,0.05,0.94,0.09,39.48
5,0.05,0.99,0.09,42.63
5,0.03,0.99,0.09,39.72
5,-0.05,1.07,0.09,39.72
5,-0.04,1.03,0.08,44.35
5,-0.04,1.03,0.08,44.18
5,0.04,0.95,0.08,44.18
5,0.03,0.97,0.11,48.16
6,-0.06,1.05,0.08,40.38
6,-0.01,0.97,0.08,39.60
6,-0.01,0.97,0.09,41.35
6,0.03,0.95,0.09,41.35
6,-0.01,1.02,0.09,43.08
6,-0.01,1.05,0.09,48.78
6,-0.07,1.05,0.09,49.24
6,-0.03,1.00,0.09,45.32
6,-0.03,0.95,0.08,37.07
6,0.05,0.95,0.09,39.73
6,0.02,0.99,0.09,39.73
6,0.02,1.05,0.08,45.20
6,-0.04,1.05,0.07,44.05
6,-0.04,1.02,0.07,44.05
6,0.03,0.95,0.08,41.48
6,0.03,0.97,0.09,41.81
6,0.02,0.97,0.09,41.46
6,-0.03,1.05,0.09,46.16
6,-0.03,1.04,0.08,48.19
6,-0.05,1.04,0.08,43.62
6,0.01,0.96,0.09,43.62
6,0.04,0.95,0.09,40.55
6,0.04,0.95,0.09,46.84
6,-0.03,1.03,0.09,46.84
6,-0.06,1.04,0.09,38.53
6,-0.06,1.04,0.08,40.11
6,-0.00,0.98,0.08,39.98
6,0.04,0.95,0.09,42.33
6,0.04,0.96,0.10,41.74
6,0.01,1.02,0.10,46.14
6,-0.06,1.05,0.09,46.14
6,-0.06,1.00,0.08,45.24
6,-0.02,1.00,0.09,38.55
6,0.05,0.94,0.09,38.55
6,0.03,0.99,0.08,39.36
6,0.03,0.99,0.09,43.79
6,-0.06,1.05,0.09,43.79
6,-0.05,1.02,0.07,41.94
6,-0.05,1.01,0.09,40.94
6,0.03,0.95,0.09,41.26
6,0.03,0.97,0.10,42.04
6,0.03,1.05,0.09,40.87
6,-0.04,1.05,0.09,35.98
6,-0.04,1.03,0.08,35.98
6,-0.05,0.96,0.09,43.38
6,0.01,0.96,0.09,45.41
6,0.04,0.96,0.09,45.41
6,-0.02,1.04,0.09,42.10
6,-0.02,1.04,0.08,42.91
6,-0.06,1.05,0.08,42.69
6,0.01,0.98,0.09,39.55
6,0.01,0.95,0.08,44.99
6,0.05,0.95,0.08,41.24
6,-0.01,1.02,0.10,41.24
6,-0.05,1.06,0.08,43.15
6,-0.05,1.06,0.09,42.21
6,-0.03,1.00,0.09,42.21
6,0.04,0.96,0.09,40.95
6,0.04,0.96,0.09,41.55
6,0.02,1.00,0.09,41.55
6,-0.04,1.06,0.09,46.27
6,-0.04,1.01,0.08,36.89
6,-0.04,1.01,0.08,43.37
6,0.04,0.95,0.09,43.37
6,0.04,0.98,0.10,40.04
6,0.03,0.98,0.09,42.91
6,-0.05,1.05,0.09,42.91
6,-0.06,1.03,0.08,40.99
6,-0.06,1.03,0.09,42.52
6,0.01,0.97,0.09,42.52
6,0.05,0.97,0.09,40.24
6,0.05,0.97,0.09,39.84
6,-0.03,1.03,0.09,39.58
6,-0.05,1.04,0.08,40.37
6,-0.05,0.97,0.09,37.49
6,0.00,0.97,0.09,43.38
6,0.04,0.95,0.09,43.38
6,0.06,1.01,0.09,41.93
6,-0.00,1.01,0.09,38.78
6,-0.05,1.05,0.09,38.78
6,-0.03,0.99,0.08,46.80
6,-0.03,0.99,0.09,39.50
6,0.03,0.95,0.09,39.61
6,-0.00,1.00,0.09,43.53
6,-0.00,1.06,0.10,41.66
6,-0.05,1.06,0.10,41.80
6,-0.04,1.02,0.09,41.80
6,-0.04,0.96,0.08,39.12
6,0.04,0.96,0.09,46.93
6,0.03,0.98,0.09,46.93
6,0.03,1.05,0.09,43.66
6,-0.03,1.05,0.08,41.63
6,-0.04,1.03,0.08,41.63
6,0.03,0.97,0.08,42.66
6,0.03,0.96,0.08,42.82
6,0.04,0.96,0.08,42.48
6,-0.03,1.03,0.09,40.92
6,-0.03,1.03,0.08,42.03
6,-0.06,1.03,0.08,44.43
6,-0.01,0.98,0.07,44.43
6,-0.03,0.95,0.09,41.08
6,0.04,0.95,0.08,38.69
6,-0.00,1.02,0.08,38.69
6,-0.06,1.06,0.10,40.17
6,-0.06,1.06,0.09,44.39
6,-0.02,0.99,0.09,44.32
6,0.05,0.95,0.09,41.19
6,0.05,0.99,0.09,44.00
6,0.02,0.99,0.09,37.73
6,-0.04,1.05,0.09,37.73
6,-0.03,1.01,0.09,43.42
6,-0.03,1.01,0.08,39.65
6,0.04,0.96,0.08,39.65
6,0.02,0.98,0.09,44.29
6,0.02,0.98,0.09,42.06
6,-0.04,1.05,0.09,42.06
6,-0.04,1.03,0.07,40.42
6,-0.04,1.01,0.09,43.94
6,0.02,0.94,0.09,43.86
6,0.04,0.96,0.09,45.42
6,0.04,1.04,0.08,51.87
6,-0.03,1.04,0.08,45.17
6,-0.06,1.04,0.09,45.17
6,-0.00,0.98,0.08,39.35
6,-0.00,0.98,0.09,43.04
6,0.03,0.96,0.09,43.04
6,-0.01,1.02,0.09,44.31
6,-0.01,1.05,0.07,39.67
6,-0.05,1.05,0.07,39.61
6,-0.01,0.99,0.09,43.52
6,-0.01,0.96,0.10,41.07
6,0.04,0.96,0.10,43.93
6,0.01,1.01,0.10,43.93
6,0.01,1.05,0.10,45.59
6,-0.05,1.05,0.11,41.95
6,-0.03,1.02,0.11,41.95
6,0.04,0.96,0.10,40.43
6,0.04,0.96,0.10,40.89
6,0.03,0.98,0.10,40.80
6,-0.05,1.05,0.09,42.37
6,-0.05,1.03,0.08,38.82
6,-0.05,1.03,0.08,42.27
6,0.01,0.96,0.09,42.27
6,0.01,0.96,0.08,44.87
6,0.04,0.96,0.09,43.60
6,-0.03,1.03,0.09,43.60
6,-0.04,1.04,0.07,43.92
6,-0.04,1.04,0.08,37.22
6,0.01,0.97,0.08,37.22
6,0.05,0.95,0.08,40.30
6,0.05,0.95,0.09,39.18
6,0.00,1.02,0.09,39.53
6,-0.04,1.05,0.08,41.88
6,-0.04,0.99,0.08,40.87
6,-0.03,0.99,0.08,39.81
6,0.04,0.95,0.09,39.81
6,0.00,1.00,0.09,37.58
6,0.00,1.00,0.08,43.38
6,-0.04,1.05,0.08,43.38
6,-0.03,1.01,0.09,44.65
6,-0.03,1.01,0.09,41.72
6,0.04,0.95,0.09,41.73
6,0.02,0.99,0.10,44.86
6,0.02,0.98,0.08,43.21
6,-0.03,1.05,0.08,40.12
6,-0.04,1.03,0.09,40.12
6,-0.05,0.97,0.09,40.05
6,0.01,0.97,0.09,39.23
6,0.03,0.97,0.09,39.23
6,-0.03,1.03,0.09,42.32
6,-0.03,1.03,0.09,40.29
6,-0.06,1.04,0.09,40.29
6,0.01,0.97,0.09,47.08
6,0.01,0.96,0.09,44.69
6,0.04,0.96,0.09,44.87
6,-0.01,1.01,0.09,42.52
6,-0.01,1.05,0.09,41.53
6,-0.05,1.05,0.09,46.76
6,-0.01,0.99,0.09,46.76
6,-0.03,0.96,0.09,42.41
6,0.04,0.96,0.09,38.59
6,0.00,0.99,0.09,38.59
6,-0.04,1.04,0.09,44.52
6,-0.04,1.00,0.09,45.65
6,-0.03,1.00,0.09,45.52
6,0.04,0.95,0.08,45.52
6,0.04,0.99,0.09,42.85
6,0.03,0.99,0.09,43.25
6,-0.03,1.04,0.09,43.25
6,-0.04,1.03,0.09,41.14
6,-0.04,1.03,0.08,40.74
6,0.02,0.97,0.08,40.74
6,0.03,0.97,0.10,44.53
6,0.03,0.97,0.10,43.95
6,-0.02,1.03,0.10,44.54
6,-0.05,1.04,0.09,46.89
6,-0.05,1.04,0.09,50.15
6,0.01,0.98,0.09,41.04
6,0.04,0.96,0.09,41.04
6,0.04,1.01,0.09,39.20
6,-0.01,1.01,0.08,47.83
6,-0.05,1.04,0.08,47.83
6,-0.01,0.99,0.08,41.81
6,-0.01,0.99,0.09,43.43
6,0.03,0.95,0.09,43.43
6,0.00,1.00,0.09,44.15
6,0.00,1.04,0.08,43.91
6,-0.05,1.04,0.08,44.10
6,-0.02,1.01,0.08,45.66
6,-0.02,0.96,0.08,45.08
6,0.03,0.96,0.08,39.58
6,0.02,0.99,0.09,39.58
6,0.03,1.05,0.09,47.41
6,-0.04,1.05,0.08,42.00
6,-0.04,1.02,0.08,42.00
6,0.02,0.97,0.08,39.47
6,0.02,0.97,0.09,44.16
6,0.03,0.97,0.09,44.14
6,-0.03,1.03,0.09,40.22
6,-0.03,1.04,0.08,43.34
6,-0.05,1.04,0.08,40.19
6,0.01,0.98,0.09,40.19
6,0.04,0.96,0.09,46.77
6,0.04,0.96,0.09,42.46
6,-0.02,1.02,0.09,42.46
6,-0.04,1.05,0.09,38.24
6,-0.04,1.05,0.08,42.50
6,-0.00,1.00,0.08,42.50
6,0.04,0.96,0.09,43.01
6,0.04,1.00,0.10,45.78
6,0.01,1.00,0.10,45.85
6,-0.05,1.05,0.08,41.15
6,-0.05,1.01,0.08,38.98
7,0.02,0.97,0.09,40.68
7,0.02,1.03,0.10,44.86
7,-0.02,1.03,0.10,41.72
7,-0.05,1.03,0.08,41.72
7,-0.05,0.98,0.07,47.77
7,0.01,0.98,0.09,41.24
7,0.03,0.97,0.09,41.24
7,-0.01,1.02,0.08,39.08
7,-0.01,1.04,0.09,42.33
7,-0.05,1.04,0.09,42.41
7,-0.01,0.99,0.08,43.98
7,-0.01,0.97,0.09,44.44
7,0.03,0.97,0.09,40.26
7,0.01,1.00,0.09,40.26
7,0.02,1.04,0.09,37.63
7,-0.04,1.04,0.09,39.79
7,-0.03,1.01,0.09,39.79
7,0.03,0.97,0.09,37.23
7,0.03,0.97,0.09,38.23
7,0.02,0.99,0.09,37.93
7,-0.04,1.03,0.09,46.55
7,-0.04,1.02,0.08,43.53
7,-0.03,1.02,0.08,46.42
7,0.03,0.96,0.08,46.42
7,0.03,0.97,0.09,43.08
7,0.02,0.97,0.09,37.90
7,-0.02,1.03,0.09,37.90
7,-0.04,1.04,0.08,44.32
7,-0.04,1.04,0.09,41.71
7,0.00,0.97,0.09,41.71
7,0.04,0.96,0.09,44.48
7,0.04,0.96,0.10,45.58
7,-0.02,1.02,0.10,45.43
7,-0.05,1.04,0.09,46.21
7,-0.05,0.99,0.09,47.50
7,-0.01,0.99,0.09,47.65
7,0.04,0.96,0.09,47.65
7,0.01,1.01,0.10,47.70
7,0.01,1.01,0.09,38.26
7,-0.04,1.03,0.09,38.26
7,-0.02,1.01,0.08,39.45
7,-0.02,1.01,0.09,39.63
7,0.04,0.96,0.09,39.72
7,0.02,0.99,0.09,40.51
7,0.02,0.98,0.09,43.36
7,-0.04,1.04,0.09,39.36
7,-0.04,1.02,0.09,39.36
7,-0.04,0.97,0.08,46.20
7,0.03,0.97,0.10,42.41
7,0.02,0.97,0.10,42.41
7,-0.03,1.03,0.09,39.83
7,-0.03,1.03,0.08,39.82
7,-0.04,1.03,0.08,39.82
7,0.01,0.98,0.08,48.75
7,0.01,0.97,0.10,44.80
7,0.04,0.97,0.10,44.71
7,-0.02,1.02,0.08,42.36
7,-0.02,1.04,0.08,49.34
7,-0.05,1.04,0.08,41.92
7,-0.02,0.99,0.08,41.92
7,-0.02,0.96,0.09,42.39
7,0.04,0.96,0.09,42.16
7,-0.00,1.00,0.09,42.16
7,-0.05,1.04,0.08,42.73
7,-0.05,1.04,0.10,47.69
7,-0.03,1.00,0.10,47.37
7,0.03,0.96,0.10,41.10
7,0.03,1.00,0.09,38.36
7,0.02,1.00,0.09,39.76
7,-0.03,1.05,0.09,39.76
7,-0.02,1.01,0.07,36.38
7,-0.02,1.01,0.09,41.82
7,0.03,0.96,0.09,41.82
7,0.03,0.97,0.09,47.56
7,0.03,0.97,0.09,41.94
7,-0.04,1.03,0.09,41.94
7,-0.05,1.03,0.09,45.18
7,-0.05,1.04,0.09,40.61
7,0.00,0.98,0.09,41.50
7,0.03,0.96,0.09,41.50
7,0.03,1.01,0.08,45.58
7,-0.02,1.01,0.08,43.88
7,-0.04,1.03,0.08,43.88
7,-0.00,0.98,0.08,45.43
7,-0.00,0.98,0.09,48.17
7,0.04,0.96,0.09,48.17
7,0.00,1.00,0.09,44.01
7,0.00,1.04,0.08,42.60
7,-0.05,1.04,0.08,42.59
7,-0.02,1.00,0.09,43.37
7,-0.02,0.96,0.10,46.67
7,0.03,0.96,0.10,41.70
7,0.01,0.98,0.09,41.70
7,0.02,1.05,0.09,39.00
7,-0.04,1.05,0.08,41.68
7,-0.03,1.02,0.08,41.68
7,0.02,0.97,0.08,40.95
7,0.02,0.97,0.08,46.13
7,0.03,0.98,0.08,45.46
7,-0.04,1.03,0.09,48.60
7,-0.04,1.03,0.08,44.52
7,-0.03,1.03,0.08,39.13
7,0.00,0.98,0.09,39.13
7,0.00,0.98,0.09,44.54
7,0.02,0.98,0.09,46.77
7,-0.01,1.02,0.09,46.77
7,-0.03,1.04,0.09,39.21
7,-0.03,1.04,0.08,41.26
7,-0.01,0.99,0.08,41.26
7,0.03,0.96,0.09,38.15
7,0.03,0.94,0.10,44.99
7,0.00,1.00,0.10,44.91
7,-0.05,1.04,0.09,39.42
7,-0.05,1.00,0.08,39.86
7,-0.02,1.00,0.08,40.69
7,0.03,0.96,0.09,40.69
7,0.01,1.00,0.08,43.35
7,0.01,1.00,0.07,46.03
7,-0.03,1.03,0.07,46.03
7,-0.03,1.01,0.08,45.80
7,-0.03,1.03,0.08,38.39
7,0.03,0.97,0.08,38.85
7,0.03,0.98,0.09,43.55
7,0.03,1.03,0.10,47.05
7,-0.03,1.03,0.10,43.48
7,-0.04,1.03,0.09,43.48
7,-0.06,0.98,0.10,50.21
7,0.00,0.98,0.09,45.74
7,0.03,0.96,0.09,45.74
7,-0.01,1.02,0.09,44.57
7,-0.01,1.02,0.08,49.12
7,-0.05,1.04,0.08,49.12
7,-0.01,0.98,0.08,45.26
7,-0.01,0.97,0.08,42.22
7,0.04,0.97,0.08,43.36
7,-0.00,1.00,0.09,43.36
7,-0.00,1.04,0.09,43.69
7,-0.04,1.04,0.07,37.05
7,-0.02,1.01,0.07,37.05
7,-0.03,0.96,0.09,42.59
7,0.03,0.96,0.08,43.81
7,0.01,1.00,0.08,43.81
7,-0.04,1.03,0.09,48.02
7,-0.04,1.01,0.08,43.12
7,-0.04,1.01,0.08,43.75
7,0.02,0.97,0.09,42.97
7,0.02,0.98,0.09,45.60
7,0.03,0.98,0.09,42.05
7,-0.04,1.02,0.09,42.05
7,-0.04,1.03,0.07,43.60
7,-0.04,1.03,0.08,48.71
7,0.02,0.98,0.08,48.71
7,0.04,0.96,0.10,42.10
7,0.04,0.96,0.09,46.65
7,-0.01,1.02,0.09,46.80
7,-0.04,1.03,0.08,43.66
7,-0.04,1.06,0.09,44.05
7,-0.00,1.00,0.09,46.65
7,0.04,0.96,0.09,46.65
7,0.04,1.01,0.09,46.27
7,-0.00,1.01,0.08,41.97
7,-0.05,1.05,0.08,41.97
7,-0.02,1.00,0.08,44.47
7,-0.02,1.00,0.09,41.61
7,0.03,0.96,0.09,41.61
7,0.01,0.99,0.09,46.03
7,0.01,0.97,0.09,45.75
7,-0.03,1.04,0.09,45.69
7,-0.03,1.02,0.08,44.12
7,-0.03,0.97,0.08,40.90
7,0.03,0.97,0.08,45.09
7,0.03,0.98,0.10,45.09
7,0.03,1.03,0.09,42.67
7,-0.03,1.03,0.09,43.29
7,-0.04,1.03,0.09,43.29
7,0.01,0.98,0.09,42.91
7,0.01,0.98,0.09,45.27
7,0.03,0.98,0.09,44.77
7,-0.02,1.02,0.09,43.99
7,-0.02,1.03,0.08,45.99
7,-0.04,1.03,0.08,44.21
7,-0.01,0.99,0.08,44.21
7,-0.03,0.96,0.09,43.49
7,0.03,0.96,0.09,49.05
7,-0.00,1.01,0.09,49.05
7,-0.04,1.03,0.09,40.97
7,-0.04,1.03,0.09,39.14
7,-0.02,1.01,0.09,39.50
7,0.02,0.96,0.10,46.55
7,0.02,0.99,0.09,44.97
7,0.02,0.99,0.09,45.70
7,-0.04,1.04,0.08,45.70
7,-0.04,1.01,0.08,49.31
7,-0.03,1.01,0.08,41.42
7,0.02,0.97,0.08,41.42
7,0.02,0.98,0.09,47.15
7,0.02,0.98,0.09,44.42
7,-0.03,1.03,0.09,44.42
7,-0.04,1.03,0.08,39.83
7,-0.04,1.04,0.08,39.26
7,0.01,0.98,0.08,39.43
7,0.03,0.97,0.09,43.34
7,0.03,1.02,0.09,43.99
7,-0.01,1.02,0.09,43.70
7,-0.04,1.04,0.08,43.70
7,-0.01,0.99,0.09,44.89
7,-0.01,0.99,0.11,45.99
7,0.04,0.97,0.11,45.99
7,-0.00,1.01,0.09,47.03
7,-0.00,1.01,0.08,38.31
7,-0.04,1.03,0.08,37.76
7,-0.01,1.00,0.08,45.59
7,-0.01,1.03,0.08,47.94
7,0.03,0.97,0.08,40.15
7,-0.00,0.99,0.09,40.15
7,-0.00,1.04,0.09,43.81
7,-0.04,1.04,0.08,43.02
7,-0.03,1.02,0.08,43.02
7,0.02,0.97,0.09,41.34
7,0.02,0.97,0.09,47.17
7,0.02,0.97,0.09,47.17
7,-0.03,1.03,0.09,46.16
7,-0.03,1.03,0.09,38.42
7,-0.03,1.03,0.09,38.56
7,0.02,0.98,0.08,40.13
7,0.02,0.98,0.09,51.22
7,0.03,0.98,0.09,46.45
7,-0.02,1.02,0.10,46.45
7,-0.03,1.03,0.08,40.33
7,-0.03,1.03,0.08,41.78
7,-0.00,0.99,0.08,41.78
7,0.04,0.97,0.09,40.44
7,0.04,0.95,0.10,43.84
8,-0.03,1.01,0.09,49.01
8,-0.03,1.01,0.07,43.49
8,0.03,0.97,0.07,43.42
8,0.03,0.98,0.09,44.20
8,0.03,0.96,0.08,41.79
8,-0.02,1.02,0.08,43.33
8,-0.03,1.02,0.09,43.33
8,-0.03,0.98,0.09,48.05
8,0.02,0.98,0.09,44.19
8,0.02,0.97,0.09,44.19
8,-0.02,1.02,0.10,45.50
8,-0.02,1.02,0.09,46.98
8,-0.04,1.03,0.09,46.98
8,-0.01,1.00,0.09,49.79
8,-0.01,0.97,0.09,43.48
8,0.03,0.97,0.09,43.03
8,-0.00,1.01,0.10,45.38
8,-0.00,1.03,0.09,45.60
8,-0.04,1.03,0.09,50.76
8,-0.02,1.00,0.09,50.76
8,-0.03,0.96,0.08,45.39
8,0.03,0.96,0.09,41.31
8,0.02,1.00,0.09,41.31
8,-0.03,1.03,0.08,45.73
8,-0.03,1.03,0.08,52.99
8,-0.03,1.00,0.08,52.49
8,0.03,0.97,0.08,43.09
8,0.03,0.98,0.10,44.12
8,0.02,0.98,0.10,40.89
8,-0.03,1.03,0.09,40.89
8,-0.04,1.02,0.09,42.14
8,-0.04,1.02,0.09,47.06
8,0.00,0.98,0.09,47.06
8,0.02,0.98,0.11,40.11
8,0.02,0.98,0.09,44.74
8,-0.02,1.02,0.09,44.74
8,-0.04,1.03,0.08,42.99
8,-0.04,1.05,0.09,41.84
8,-0.00,0.99,0.09,42.19
8,0.04,0.97,0.09,43.75
8,0.04,1.01,0.09,43.97
8,-0.00,1.01,0.09,44.96
8,-0.04,1.03,0.09,44.96
8,-0.02,0.99,0.10,41.45
8,-0.02,0.99,0.09,46.15
8,0.02,0.97,0.09,46.15
8,0.00,1.00,0.10,45.33
8,0.00,0.97,0.08,44.49
8,-0.04,1.03,0.08,43.83
8,-0.02,1.01,0.08,43.83
8,-0.02,0.97,0.09,42.75
8,0.01,0.97,0.09,40.69
8,0.01,0.98,0.09,40.69
8,0.04,1.02,0.09,43.16
8,-0.03,1.02,0.09,41.99
8,-0.03,1.02,0.09,41.99
8,0.01,0.98,0.08,47.43
8,0.01,0.98,0.09,39.10
8,0.03,0.97,0.09,39.19
8,-0.01,1.02,0.08,43.89
8,-0.01,1.02,0.07,43.66
8,-0.03,1.02,0.07,46.88
8,0.01,0.99,0.09,46.88
8,0.01,0.96,0.10,44.38
8,0.03,0.96,0.09,42.23
8,-0.01,1.00,0.09,42.23
8,-0.04,1.04,0.08,45.43
8,-0.04,1.04,0.08,41.18
8,-0.02,1.00,0.08,41.18
8,0.03,0.97,0.10,37.67
8,0.03,0.94,0.09,44.95
8,0.01,1.00,0.09,45.23
8,-0.04,1.04,0.09,41.32
8,-0.04,1.01,0.09,42.83
8,-0.03,1.01,0.09,42.63
8,0.02,0.97,0.10,42.63
8,0.00,0.98,0.11,46.80
8,0.00,0.98,0.10,40.47
8,-0.03,1.02,0.10,40.47
8,-0.03,1.02,0.09,43.01
8,-0.03,1.02,0.08,48.01
8,0.02,0.99,0.08,48.16
8,0.03,0.97,0.09,41.11
8,0.03,0.95,0.08,45.50
8,-0.01,1.01,0.08,43.12
8,-0.04,1.03,0.07,43.12
8,-0.00,0.99,0.07,42.87
8,-0.00,0.99,0.08,44.14
8,0.03,0.96,0.08,44.14
8,-0.02,1.01,0.09,41.02
8,-0.02,1.01,0.09,44.23
8,-0.04,1.03,0.09,44.23
8,-0.02,0.99,0.10,38.01
8,-0.02,0.98,0.10,40.05
8,0.02,0.98,0.10,40.61
8,0.00,0.99,0.10,43.74
8,0.00,1.04,0.09,41.03
8,-0.03,1.04,0.09,41.16
8,-0.03,1.01,0.09,41.16
8,-0.04,0.98,0.09,43.48
8,0.03,0.98,0.09,44.04
8,0.00,0.98,0.09,44.04
8,-0.03,1.02,0.09,48.61
8,-0.03,1.02,0.09,45.08
8,-0.04,1.02,0.09,45.35
8,0.02,0.98,0.09,46.91
8,0.02,0.97,0.09,40.32
8,0.02,0.97,0.09,47.40
8,-0.02,1.02,0.09,47.40
8,-0.04,1.03,0.08,46.01
8,-0.04,1.03,0.08,45.81
8,0.00,0.99,0.08,45.81
8,0.02,0.97,0.08,44.66
8,0.02,0.97,0.09,44.53
8,-0.00,1.00,0.09,44.53
8,-0.05,1.04,0.09,38.50
8,-0.05,1.00,0.08,45.06
8,-0.00,1.00,0.08,46.29
8,0.04,0.96,0.08,46.29
8,0.04,1.00,0.09,42.93
8,0.00,1.00,0.10,44.26
8,-0.04,1.03,0.10,44.26
8,-0.03,1.00,0.08,42.19
8,-0.03,1.00,0.08,42.61
8,0.04,0.97,0.08,42.61
8,0.01,0.99,0.09,43.30
8,0.01,0.96,0.08,43.05
8,-0.03,1.03,0.08,43.30
8,-0.04,1.01,0.09,45.65
8,-0.04,0.98,0.08,44.53
8,0.01,0.98,0.08,47.61
8,0.02,0.98,0.10,47.61
8,0.05,1.02,0.08,49.31
8,-0.02,1.02,0.09,41.91
8,-0.04,1.02,0.09,41.91
8,0.01,0.99,0.08,42.58
8,0.01,0.99,0.08,44.97
8,0.02,0.97,0.08,44.87
8,-0.00,1.01,0.09,42.52
8,-0.00,1.03,0.08,43.45
8,-0.04,1.03,0.08,43.75
8,-0.01,1.00,0.08,43.75
8,-0.01,0.97,0.10,41.90
8,0.03,0.97,0.09,44.82
8,0.01,1.00,0.09,44.82
8,-0.03,1.03,0.08,41.74
8,-0.03,1.03,0.07,41.48
8,-0.02,1.01,0.07,41.48
8,0.02,0.96,0.09,39.52
8,0.02,0.99,0.09,41.42
8,0.02,0.99,0.09,41.15
8,-0.03,1.03,0.08,43.50
8,-0.03,1.03,0.08,42.47
8,-0.04,1.03,0.08,41.20
8,0.01,0.98,0.09,41.20
8,0.02,0.98,0.09,45.84
8,0.02,0.98,0.10,46.20
8,-0.02,1.02,0.10,46.20
8,-0.04,1.02,0.10,42.59
8,-0.04,1.05,0.09,40.72
8,-0.00,0.99,0.09,41.02
8,0.03,0.97,0.10,44.94
8,0.03,1.00,0.10,39.25
8,-0.01,1.00,0.10,40.74
8,-0.02,1.03,0.08,40.74
8,-0.01,1.00,0.08,44.38
8,-0.01,1.00,0.08,46.81
8,0.03,0.97,0.08,46.81
8,0.01,1.00,0.08,45.16
8,0.01,1.00,0.09,43.74
8,-0.03,1.02,0.09,43.38
8,-0.03,1.01,0.08,41.03
8,-0.03,1.03,0.08,46.51
8,0.02,0.97,0.08,42.51
8,0.02,0.98,0.08,42.51
8,0.02,1.03,0.08,42.07
8,-0.03,1.03,0.08,45.62
8,-0.04,1.02,0.08,45.62
8,-0.05,0.98,0.09,39.81
8,0.01,0.98,0.09,41.89
8,0.02,1.00,0.09,41.89
8,-0.02,1.02,0.09,43.16
8,-0.02,1.03,0.09,41.76
8,-0.04,1.03,0.09,41.73
8,0.00,0.99,0.09,40.94
8,0.00,0.97,0.10,46.83
8,0.02,0.97,0.10,42.87
8,-0.01,1.01,0.10,42.87
8,-0.04,1.03,0.08,47.19
8,-0.04,1.03,0.08,42.78
8,-0.00,1.00,0.08,42.78
8,0.03,0.97,0.08,49.09
8,0.03,0.97,0.09,47.76
8,0.00,1.00,0.09,48.41
8,-0.03,1.03,0.09,45.28
8,-0.03,1.01,0.09,42.75
8,-0.03,1.01,0.09,44.35
8,0.03,0.98,0.07,44.35
8,0.02,0.99,0.08,43.58
8,0.02,0.99,0.08,43.95
8,-0.03,1.01,0.08,43.95
8,-0.03,1.01,0.08,45.34
8,-0.03,1.01,0.09,46.69
8,0.01,0.98,0.09,46.69
8,0.02,0.98,0.09,44.93
8,0.02,0.96,0.09,47.38
8,-0.02,1.02,0.09,47.29
8,-0.04,1.02,0.10,46.51
8,-0.04,0.99,0.10,44.71
8,0.01,0.99,0.10,42.60
8,0.02,0.97,0.08,42.60
8,0.00,1.02,0.09,39.81
8,0.00,1.02,0.08,35.14
8,-0.03,1.02,0.08,35.14
8,-0.01,1.00,0.09,42.95
8,-0.01,0.97,0.09,45.60
8,0.03,0.97,0.09,45.46
8,-0.00,1.00,0.10,43.89
8,-0.00,1.03,0.08,46.35
8,-0.04,1.03,0.08,44.02
8,-0.02,1.01,0.08,44.02
8,-0.05,0.98,0.09,38.93
8,0.01,0.98,0.09,44.50
8,0.02,0.99,0.09,44.50
8,-0.02,1.02,0.09,42.01
8,-0.02,1.02,0.09,44.22
8,-0.03,1.02,0.09,43.82
8,0.01,0.98,0.08,43.82
8,0.01,0.97,0.09,45.01
8,0.02,0.97,0.09,48.05
8,-0.01,1.02,0.08,48.05
8,-0.01,1.03,0.08,38.21
8,-0.04,1.03,0.09,41.59
9,0.02,1.00,0.10,44.46
9,-0.00,1.00,0.09,38.78
9,-0.03,1.04,0.09,38.78
9,-0.02,1.01,0.08,48.14
9,-0.02,1.01,0.08,48.60
9,0.02,0.98,0.08,48.60
9,0.01,0.99,0.08,46.95
9,0.01,0.96,0.08,41.24
9,-0.02,1.02,0.08,41.33
9,-0.02,1.01,0.07,40.55
9,-0.02,0.98,0.09,42.88
9,0.01,0.98,0.09,41.08