seconds, accX, accY, accZ, temp
9,-0.01,0.98,0.17,45.17
9,-0.01,0.99,0.16,40.72
9,-0.10,0.99,0.16,46.06
9,-0.12,0.99,0.12,46.06
9,-0.11,1.02,0.09,47.79
9,-0.05,1.02,0.11,44.92
9,0.04,1.03,0.11,44.92
9,0.02,0.98,0.17,42.56
9,0.02,0.98,0.17,41.63
9,-0.09,0.98,0.17,42.17
9,-0.12,0.98,0.12,49.22
9,-0.12,1.02,0.10,52.01
9,-0.08,1.02,0.10,50.56
9,0.02,1.03,0.10,50.56
9,0.03,0.99,0.15,50.94
9,0.03,0.99,0.17,48.68
9,-0.05,0.99,0.17,48.68
9,-0.12,0.99,0.13,46.18
9,-0.12,0.99,0.10,46.26
9,-0.09,0.99,0.10,46.58
9,0.00,1.04,0.10,47.36
9,0.00,1.00,0.13,48.32
9,0.04,1.00,0.13,43.33
9,-0.03,0.98,0.17,43.33
9,-0.05,0.99,0.14,44.95
9,-0.12,0.99,0.17,47.40
9,-0.11,0.99,0.10,47.40
9,-0.02,1.03,0.09,46.54
9,-0.02,1.03,0.12,44.30
9,0.05,1.01,0.12,44.30
9,-0.00,0.98,0.18,47.35
9,-0.00,0.98,0.14,44.50
9,-0.10,0.98,0.14,44.38
9,-0.11,0.98,0.11,41.25
9,-0.11,1.03,0.09,44.96
9,-0.05,1.03,0.12,46.69
9,0.04,1.01,0.12,46.69
9,0.02,0.98,0.16,39.92
9,0.02,0.98,0.17,55.45
9,-0.08,0.98,0.17,55.45
9,-0.12,0.99,0.12,40.19
10,-0.09,1.01,0.09,42.50
30,-0.01,1.00,0.12,48.43
30,0.01,1.01,0.14,48.43
30,0.04,0.99,0.14,44.47
30,-0.02,0.99,0.13,48.12
30,-0.07,1.00,0.13,48.12
30,-0.08,1.00,0.11,46.10
30,-0.08,1.00,0.10,44.84
30,-0.02,1.01,0.10,45.21
30,0.01,1.00,0.13,44.42
30,0.01,1.06,0.14,44.17
30,-0.02,1.00,0.14,43.39
30,-0.07,1.00,0.12,43.39
30,-0.07,1.00,0.11,43.40
30,-0.08,1.00,0.11,43.51
30,-0.04,1.01,0.11,43.51
30,-0.01,1.01,0.12,42.14
30,-0.01,1.01,0.14,44.42
30,-0.00,1.00,0.14,44.42
30,-0.06,1.00,0.13,40.49
30,-0.06,0.94,0.11,40.25
30,-0.08,1.00,0.11,40.08
30,-0.06,1.00,0.11,44.00
30,-0.06,1.00,0.12,45.59
30,-0.00,1.00,0.12,40.56
30,-0.01,1.00,0.14,40.56
30,-0.05,0.99,0.14,44.96
30,-0.05,0.99,0.18,42.63
30,-0.08,1.00,0.12,42.63
30,-0.06,1.00,0.12,40.50
30,-0.06,1.00,0.12,41.73
30,-0.01,1.00,0.12,41.86
30,-0.00,1.00,0.13,44.21
30,-0.00,1.05,0.14,44.27
30,-0.04,0.99,0.14,47.37
30,-0.07,0.99,0.12,47.37
30,-0.06,1.00,0.11,46.09
30,-0.06,1.00,0.11,45.99
30,-0.02,1.00,0.11,45.99
30,0.00,1.00,0.14,39.84
30,0.00,1.00,0.13,41.17
30,-0.02,1.00,0.13,41.17
30,-0.07,0.99,0.12,45.77
30,-0.07,1.00,0.12,46.54
30,-0.08,1.00,0.12,46.57
30,-0.04,1.01,0.11,47.35
30,-0.04,1.00,0.12,41.89
30,0.00,1.00,0.12,40.89
30,-0.02,0.99,0.13,40.89
30,-0.00,0.99,0.13,45.80
30,-0.06,0.99,0.11,45.56
30,-0.08,1.00,0.11,45.56
30,-0.05,1.02,0.10,42.46
30,-0.05,1.01,0.11,45.97
30,-0.00,1.01,0.11,46.13
30,-0.01,1.00,0.14,43.78
30,-0.01,0.99,0.14,47.42
30,-0.05,0.99,0.14,41.98
30,-0.08,1.00,0.12,41.98
30,-0.12,1.01,0.10,42.26
30,-0.05,1.01,0.12,41.42
30,-0.01,1.01,0.12,41.42
30,0.00,0.99,0.13,49.31
30,0.00,0.99,0.14,49.43
30,-0.04,0.99,0.14,50.04
30,-0.07,1.00,0.11,49.26
30,-0.07,1.00,0.11,41.45
30,-0.07,1.00,0.11,39.93
30,-0.02,1.01,0.11,39.93
30,-0.02,1.00,0.12,44.23
30,-0.00,1.00,0.08,40.35
30,-0.03,0.99,0.14,40.35
30,-0.01,1.00,0.13,44.79
30,-0.07,1.00,0.11,43.60
30,-0.08,1.00,0.11,43.60
30,-0.04,1.00,0.11,39.92
30,-0.04,1.00,0.13,41.99
30,0.00,1.00,0.13,41.93
30,-0.02,0.99,0.13,44.28
30,-0.02,1.00,0.13,43.68
30,-0.06,1.00,0.13,42.18
30,-0.08,1.01,0.12,42.18
30,-0.10,1.01,0.12,38.27
30,-0.04,1.01,0.12,41.22
30,0.00,1.01,0.12,41.22
30,-0.01,0.99,0.13,41.25
30,-0.01,0.99,0.13,41.29
30,-0.05,0.99,0.13,41.06
30,-0.08,1.00,0.12,40.28
30,-0.08,1.00,0.10,50.92
30,-0.06,1.00,0.10,43.05
30,-0.01,1.00,0.12,43.05
30,-0.06,1.00,0.14,43.23
30,0.00,1.00,0.13,48.81
30,-0.04,1.00,0.13,48.81
30,-0.07,0.99,0.12,46.09
30,-0.07,0.99,0.11,45.28
30,-0.06,1.00,0.11,45.28
30,-0.02,1.00,0.12,41.85
30,-0.02,1.01,0.13,42.89
30,0.00,1.01,0.13,42.37
30,-0.02,0.99,0.14,45.50
30,-0.02,1.00,0.12,42.10
30,-0.07,1.00,0.12,37.63
30,-0.07,1.00,0.11,37.63
30,-0.09,1.00,0.11,46.65
30,-0.03,1.00,0.13,42.58
30,-0.00,0.99,0.13,42.58
30,-0.02,0.99,0.14,40.64
30,-0.02,1.00,0.13,40.72
30,-0.06,1.00,0.13,41.29
30,-0.08,1.00,0.11,39.72
30,-0.08,1.00,0.11,40.55
30,-0.04,1.00,0.11,44.72
30,-0.01,1.00,0.13,44.72
30,-0.02,0.99,0.14,48.57
30,-0.02,0.99,0.13,40.38
30,-0.06,1.00,0.13,40.38
30,-0.07,1.00,0.12,45.53
30,-0.07,1.00,0.11,46.05
30,-0.05,1.01,0.11,45.79
30,-0.01,1.00,0.12,39.52
30,-0.01,1.06,0.14,41.14
30,0.00,1.00,0.14,39.96
30,-0.04,0.99,0.13,39.96
30,-0.04,1.00,0.12,42.81
30,-0.08,1.00,0.12,48.56
30,-0.06,1.01,0.12,48.56
30,-0.02,1.01,0.12,44.77
30,-0.02,1.01,0.14,45.48
30,-0.00,1.00,0.14,45.48
30,-0.03,0.99,0.13,39.33
30,-0.03,1.00,0.13,46.70
30,-0.07,1.00,0.13,46.25
30,-0.07,1.00,0.10,38.42
30,-0.07,1.01,0.11,45.80
30,-0.04,1.01,0.11,45.80
30,0.00,1.00,0.12,45.80
30,0.05,0.99,0.13,39.70
30,-0.02,0.99,0.18,42.78
30,-0.06,0.99,0.12,42.78
30,-0.08,0.99,0.12,50.45
30,-0.08,0.99,0.12,44.58
30,-0.04,1.01,0.12,44.02
30,-0.00,1.00,0.12,45.59
30,-0.00,1.05,0.15,47.74
30,-0.01,0.99,0.15,51.07
30,-0.06,0.99,0.14,51.07
30,-0.01,1.00,0.12,41.60
30,-0.07,1.00,0.12,52.93
30,-0.04,1.01,0.12,52.93
30,-0.00,1.00,0.12,39.84
30,-0.00,1.00,0.14,49.33
30,-0.01,1.00,0.14,49.33
30,-0.04,0.99,0.14,46.06
30,-0.04,0.99,0.11,46.28
30,-0.07,0.99,0.11,46.67
30,-0.05,1.01,0.11,47.46
30,-0.05,1.01,0.12,38.69
30,-0.02,1.01,0.12,41.05
30,0.01,1.00,0.13,41.05
30,0.03,0.99,0.13,43.54
30,-0.04,0.99,0.19,45.59
30,-0.07,1.00,0.12,45.59
30,-0.07,0.99,0.12,46.40
30,-0.07,0.94,0.11,46.39
30,-0.03,1.01,0.11,46.72
30,0.00,1.00,0.13,51.42
30,0.00,1.00,0.13,41.81
30,-0.02,1.00,0.13,42.09
30,-0.07,0.99,0.12,42.09
30,-0.07,1.00,0.12,49.12
31,-0.05,1.01,0.10,44.20
31,-0.01,1.01,0.11,48.67
31,-0.01,1.01,0.13,46.86
31,-0.00,1.00,0.13,46.86
31,-0.05,0.98,0.13,45.75
31,-0.05,1.00,0.11,43.02
31,-0.08,1.00,0.11,43.58
31,-0.07,1.00,0.12,37.32
31,-0.07,1.00,0.11,43.27
31,-0.01,1.00,0.11,47.60
31,-0.00,1.00,0.12,47.60
31,-0.03,0.99,0.14,45.19
31,-0.03,0.99,0.18,46.62
31,-0.08,0.99,0.12,46.62
31,-0.07,1.01,0.11,42.46
31,-0.07,1.01,0.11,40.75
31,-0.02,1.01,0.11,41.23
31,-0.00,1.00,0.13,45.15
31,-0.00,0.99,0.13,48.92
31,-0.03,0.99,0.13,44.28
31,-0.07,0.99,0.12,44.28
31,-0.07,1.00,0.11,47.21
31,-0.07,1.00,0.10,43.31
31,-0.03,1.01,0.10,43.31
31,-0.06,1.01,0.13,38.60
31,0.00,1.01,0.14,45.14
31,-0.02,0.99,0.14,45.14
31,-0.06,0.99,0.14,44.45
31,-0.06,0.94,0.11,48.05
31,-0.09,1.00,0.11,48.34
31,-0.04,1.01,0.10,45.21
31,-0.04,1.01,0.13,41.47
31,-0.01,1.01,0.13,42.03
31,-0.00,1.00,0.14,42.03
31,-0.05,0.99,0.12,43.52
31,-0.05,0.99,0.11,42.26
31,-0.08,1.00,0.11,42.26
31,-0.05,1.01,0.11,39.92
31,-0.05,1.01,0.11,49.91
31,-0.01,1.01,0.11,49.53
31,-0.01,1.00,0.13,41.70
31,-0.01,1.00,0.14,44.43
31,-0.04,1.00,0.14,44.05
31,-0.08,1.00,0.12,44.05
31,-0.12,1.01,0.11,49.70
31,-0.06,1.01,0.12,46.62
31,-0.02,1.01,0.12,46.62
31,-0.00,1.00,0.14,45.47
31,-0.00,1.00,0.14,45.90
31,-0.04,1.00,0.14,45.90
31,-0.07,1.01,0.13,40.44
31,-0.07,1.00,0.12,42.46
31,-0.07,1.00,0.12,42.67
31,-0.04,1.01,0.12,41.89
31,-0.04,1.00,0.12,47.28
31,0.00,1.00,0.12,46.36
31,-0.02,0.99,0.14,46.36
31,-0.00,1.00,0.13,41.54
31,-0.07,1.00,0.11,46.08
31,-0.08,1.00,0.11,46.08
31,-0.03,1.01,0.10,40.92
31,-0.03,1.01,0.11,43.40
31,-0.00,1.01,0.11,43.23
31,-0.01,0.99,0.13,37.75
31,-0.01,1.00,0.13,43.90
31,-0.05,1.00,0.13,41.19
31,-0.07,0.99,0.11,41.19
31,-0.11,1.00,0.10,42.46
31,-0.05,1.00,0.06,44.37
31,-0.01,1.00,0.13,44.37
31,-0.00,1.00,0.13,41.99
31,-0.00,1.00,0.11,47.55
31,-0.04,0.99,0.11,47.56
31,-0.08,1.00,0.12,44.42
31,-0.08,1.01,0.10,41.80
31,-0.06,1.01,0.10,39.39
31,-0.01,1.01,0.12,39.39
31,-0.01,1.00,0.13,44.30
31,0.00,1.00,0.15,48.71
31,-0.04,0.98,0.15,48.71
31,-0.07,1.00,0.12,44.94
31,-0.07,1.00,0.10,47.89
31,-0.07,1.00,0.10,47.89
31,-0.03,1.00,0.12,47.28
31,-0.03,1.06,0.13,46.42
31,0.01,0.99,0.13,46.16
31,-0.02,0.99,0.13,40.68
31,-0.02,0.99,0.12,46.99
31,-0.07,0.99,0.12,46.22
31,-0.07,1.00,0.11,46.22
31,-0.10,1.00,0.11,49.00
31,-0.04,1.00,0.12,43.34
31,0.00,1.00,0.12,43.34
31,-0.01,1.00,0.12,48.17
31,-0.01,1.00,0.12,42.01
31,-0.05,1.00,0.12,41.77
31,-0.08,1.00,0.11,46.47
31,-0.08,1.01,0.10,38.13
31,-0.05,1.01,0.10,36.15
31,-0.01,1.00,0.12,36.15
31,-0.01,1.00,0.13,41.61
31,-0.01,1.00,0.14,45.53
31,-0.05,1.00,0.14,45.53
31,-0.08,0.99,0.12,44.78
31,-0.08,0.99,0.11,40.22
31,-0.06,1.00,0.11,40.22
31,-0.01,1.01,0.11,50.22
31,-0.01,1.06,0.14,45.90
31,-0.00,0.99,0.14,45.98
31,-0.03,0.99,0.14,43.63
31,-0.03,1.00,0.11,47.65
31,-0.07,1.00,0.11,50.27
31,-0.07,1.00,0.11,50.27
31,-0.10,1.00,0.12,44.11
31,-0.03,1.00,0.13,43.86
31,-0.01,1.00,0.13,43.86
31,-0.02,0.99,0.13,45.93
31,-0.02,0.99,0.11,41.89
31,-0.06,0.99,0.11,42.14
31,-0.07,1.00,0.11,45.28
31,-0.07,1.01,0.10,45.67
31,-0.03,1.01,0.10,44.80
31,0.01,1.01,0.12,44.80
31,0.04,1.00,0.14,42.41
31,-0.02,1.00,0.19,40.19
31,-0.07,1.00,0.12,40.19
31,-0.08,0.99,0.10,44.55
31,-0.08,0.99,0.10,41.96
31,-0.04,1.01,0.10,41.81
31,-0.00,1.00,0.12,46.51
31,-0.00,1.06,0.14,41.91
31,-0.01,1.00,0.14,41.96
31,-0.06,1.00,0.13,41.96
31,-0.06,1.00,0.11,42.09
31,-0.07,1.00,0.10,46.81
31,-0.05,1.01,0.10,46.81
31,-0.01,1.01,0.12,46.58
31,-0.01,1.01,0.14,40.96
31,-0.00,1.00,0.14,40.96
31,-0.03,1.00,0.14,47.07
31,-0.03,0.99,0.12,46.07
31,-0.08,0.99,0.12,45.54
31,-0.07,1.01,0.11,47.89
31,-0.07,1.01,0.12,45.31
31,-0.02,1.01,0.12,48.96
31,0.00,1.00,0.12,48.96
31,0.04,0.99,0.14,44.08
31,-0.03,0.99,0.18,45.58
31,-0.08,1.00,0.12,45.58
31,-0.07,1.00,0.11,41.21
31,-0.07,1.00,0.10,42.94
31,-0.03,1.01,0.10,42.56
31,-0.00,1.01,0.13,43.35
31,-0.00,1.00,0.15,46.60
31,-0.02,1.00,0.15,40.71
31,-0.06,1.00,0.13,40.71
31,-0.02,1.00,0.11,42.54
31,-0.08,1.00,0.11,42.86
31,-0.04,1.01,0.11,42.86
31,-0.00,1.00,0.14,47.75
31,-0.00,1.00,0.14,43.12
31,-0.01,1.00,0.14,43.12
31,-0.05,1.01,0.13,49.39
31,-0.05,1.06,0.11,39.71
31,-0.08,1.00,0.11,45.98
31,-0.05,1.01,0.12,45.98
31,-0.05,1.01,0.12,49.36
31,-0.02,1.01,0.07,47.09
31,-0.01,0.99,0.13,47.09
31,-0.05,0.99,0.13,44.99
31,-0.05,0.99,0.11,45.81
31,-0.08,0.99,0.11,45.81
31,-0.07,1.00,0.12,47.03
31,-0.07,1.00,0.12,43.48
31,-0.02,1.00,0.12,43.61
31,-0.01,1.00,0.14,45.18
31,-0.01,0.99,0.14,42.85
31,-0.03,0.99,0.14,40.59
31,-0.08,0.99,0.12,40.59
31,-0.07,1.00,0.11,38.21
31,-0.07,1.00,0.12,43.04
31,-0.02,1.01,0.12,43.04
31,0.00,1.00,0.12,43.17
31,0.00,1.00,0.13,45.40
31,-0.03,1.00,0.13,45.71
31,-0.07,0.99,0.12,44.93
31,-0.07,0.94,0.11,42.90
31,-0.07,1.00,0.11,42.79
31,-0.04,1.00,0.12,42.79
31,-0.04,1.01,0.12,46.35
31,-0.00,1.01,0.07,45.13
31,-0.02,0.99,0.13,45.13
31,-0.00,0.99,0.13,40.00
31,-0.06,0.99,0.11,42.79
31,-0.08,0.99,0.11,42.79
31,-0.04,1.00,0.12,46.62
31,-0.04,1.00,0.11,40.58
31,-0.01,1.00,0.11,40.25
31,-0.01,0.99,0.14,41.03
31,-0.01,0.99,0.13,47.52
31,-0.05,0.99,0.13,47.19
31,-0.08,0.99,0.12,47.19
31,-0.12,0.99,0.11,44.24
31,-0.06,0.99,0.12,45.64
31,-0.01,1.01,0.12,45.64
31,0.00,1.00,0.13,48.10
31,0.00,1.00,0.13,42.59
31,-0.04,0.99,0.13,42.43
31,-0.08,1.00,0.11,44.78
31,-0.08,1.01,0.11,48.19
31,-0.06,1.01,0.11,45.61
31,-0.03,1.01,0.11,45.61
31,-0.06,1.00,0.13,41.75
31,0.00,1.00,0.13,53.09
31,-0.02,1.00,0.13,53.09
31,-0.07,0.99,0.13,43.25
31,-0.07,0.99,0.11,43.44
31,-0.08,0.99,0.11,43.44
31,-0.04,1.00,0.11,48.71
31,-0.04,1.00,0.13,39.74
31,0.00,1.00,0.13,39.25
31,-0.00,1.00,0.14,45.51
31,-0.00,0.99,0.12,42.55
31,-0.05,0.99,0.12,41.46
31,-0.08,1.00,0.12,41.46
31,-0.11,1.00,0.12,43.96
31,-0.05,1.00,0.13,40.86
31,-0.01,1.00,0.13,40.86
31,-0.01,1.00,0.13,39.89
31,-0.01,0.94,0.13,38.36
31,-0.04,1.00,0.13,38.53
31,-0.08,0.99,0.13,46.36
31,-0.08,1.01,0.11,43.93
32,-0.03,1.01,0.11,40.36
32,-0.03,1.00,0.12,47.48
32,-0.00,1.00,0.12,43.45
32,-0.03,0.99,0.14,43.45
32,-0.01,1.00,0.12,49.61
32,-0.07,1.00,0.11,40.76
32,-0.07,0.99,0.11,40.76
32,-0.04,1.00,0.11,43.21
32,-0.04,1.00,0.13,43.10
32,-0.01,1.00,0.13,43.46
32,-0.02,1.00,0.12,43.46
32,-0.02,0.99,0.13,45.95
32,-0.06,0.99,0.13,46.39
32,-0.07,1.00,0.11,46.39
32,-0.11,1.00,0.11,47.13
32,-0.05,1.00,0.12,39.05
32,-0.01,1.01,0.12,39.05
32,-0.01,1.00,0.13,40.95
32,-0.01,1.00,0.13,50.91
32,-0.05,0.99,0.13,50.91
32,-0.08,1.00,0.12,46.41
32,-0.08,0.94,0.10,50.72
32,-0.06,1.01,0.10,50.45
32,-0.02,1.00,0.12,45.75
32,-0.02,0.99,0.13,44.22
32,-0.00,0.99,0.13,45.24
32,-0.04,1.00,0.12,45.24
32,-0.01,0.99,0.12,42.26
32,-0.07,0.99,0.11,48.59
32,-0.06,1.01,0.11,48.59
32,-0.02,1.00,0.11,43.76
32,-0.02,1.06,0.14,44.30
32,-0.00,1.00,0.14,44.37
32,-0.03,0.99,0.14,40.45
32,-0.03,0.98,0.12,36.47
32,-0.07,0.98,0.12,38.57
32,-0.07,0.99,0.12,38.57
32,-0.09,1.01,0.11,42.73
32,-0.03,1.01,0.12,47.45
32,0.01,1.00,0.12,47.45
32,-0.02,1.00,0.14,48.55
32,-0.02,1.00,0.12,48.24
32,-0.07,0.99,0.12,47.85
32,-0.07,1.00,0.12,44.71
32,-0.07,1.01,0.11,41.42
32,-0.03,1.01,0.11,38.64
32,-0.01,1.00,0.12,38.64
32,-0.01,1.00,0.13,41.50
32,-0.01,1.00,0.13,47.06
32,-0.05,0.99,0.13,47.06
32,-0.01,0.99,0.12,50.46
32,-0.08,0.99,0.11,42.82
32,-0.05,1.01,0.11,42.82
32,-0.02,1.00,0.12,49.34
32,-0.02,1.06,0.14,50.08
32,-0.00,1.00,0.14,50.53
32,-0.05,0.99,0.14,48.18
32,-0.05,1.00,0.13,38.14
32,-0.07,1.00,0.13,44.76
32,-0.06,1.00,0.10,44.76
32,-0.08,1.01,0.11,45.52
32,-0.02,1.01,0.07,43.70
32,0.00,1.00,0.13,43.70
32,-0.03,1.00,0.12,48.00
32,-0.03,1.00,0.12,46.88
32,-0.07,0.99,0.12,46.74
32,-0.06,1.01,0.11,42.82
32,-0.06,1.00,0.11,46.76
32,-0.03,1.00,0.11,41.89
32,0.00,1.00,0.12,41.89
32,0.04,0.99,0.12,41.42
32,-0.02,0.99,0.12,49.95
32,-0.06,0.99,0.12,49.95
32,-0.08,1.00,0.11,43.72
32,-0.08,1.00,0.12,41.17
32,-0.04,1.00,0.12,41.17
32,0.00,1.00,0.13,40.53
32,0.00,1.06,0.14,37.01
32,-0.02,0.99,0.14,37.17
32,-0.05,0.99,0.13,48.92
32,-0.05,0.99,0.11,48.49
32,-0.08,0.99,0.11,41.46
32,-0.05,1.00,0.11,41.46
32,-0.01,1.01,0.12,47.50
32,-0.01,1.01,0.13,44.79
32,-0.01,1.00,0.13,44.79
32,-0.04,0.99,0.13,43.71
32,-0.04,0.99,0.11,41.15
32,-0.08,0.99,0.11,41.15
32,-0.06,1.00,0.11,42.71
32,-0.06,1.01,0.12,43.88
32,-0.02,1.01,0.12,47.24
32,-0.00,1.00,0.13,47.24
32,-0.04,1.00,0.13,43.70
32,-0.04,1.00,0.18,45.03
32,-0.08,1.00,0.12,45.03
32,-0.06,1.00,0.11,44.11
32,-0.06,1.00,0.11,43.20
32,-0.03,1.01,0.11,43.60
32,-0.00,1.00,0.13,45.17
32,-0.00,0.99,0.14,47.01
32,-0.02,0.99,0.14,44.73
32,-0.08,0.99,0.12,44.73
32,-0.08,1.00,0.12,43.60
32,-0.07,1.00,0.12,39.83
32,-0.04,1.01,0.12,39.83
32,-0.01,1.00,0.13,40.31
32,-0.01,1.00,0.13,45.94
32,-0.02,0.99,0.13,45.94
32,-0.06,1.00,0.12,37.79
32,-0.06,1.05,0.12,41.71
32,-0.08,0.99,0.12,42.05
32,-0.05,1.01,0.11,47.53
32,-0.05,1.00,0.12,34.89
32,-0.01,1.00,0.12,44.19
32,-0.02,1.00,0.14,44.19
32,-0.05,1.00,0.12,42.35
32,-0.05,1.00,0.12,43.19
32,-0.08,1.00,0.12,43.19
32,-0.05,1.00,0.12,41.44
32,-0.05,1.00,0.12,46.28
32,-0.01,1.01,0.12,46.44
32,0.01,1.00,0.14,43.30
32,0.01,1.06,0.13,43.41
32,-0.04,0.99,0.13,43.09
32,-0.08,1.00,0.12,43.09
32,-0.08,1.01,0.11,47.13
32,-0.07,1.01,0.11,40.89
32,-0.02,1.01,0.11,40.89
32,-0.00,1.00,0.13,43.72
32,-0.00,1.00,0.13,42.41
32,-0.03,1.00,0.13,42.41
32,-0.07,1.00,0.12,42.92
32,-0.07,0.94,0.10,45.77
32,-0.07,1.00,0.10,45.93
32,-0.03,1.00,0.11,42.01
32,-0.03,1.01,0.13,39.31
32,0.01,1.01,0.13,42.59
32,-0.02,0.99,0.13,42.59
32,-0.06,1.00,0.12,44.73
32,-0.06,1.00,0.11,38.27
32,-0.07,1.00,0.11,38.27
32,-0.04,1.00,0.11,45.11
32,-0.04,1.01,0.13,42.97
32,-0.00,1.01,0.13,42.59
32,-0.01,1.00,0.15,41.81
32,-0.01,1.00,0.13,35.44
32,-0.05,1.00,0.13,41.68
32,-0.08,0.99,0.12,41.68
32,-0.12,1.01,0.11,47.63
32,-0.05,1.01,0.12,55.43
32,-0.01,1.00,0.12,55.43
32,-0.00,0.99,0.13,41.31
32,-0.00,0.99,0.13,40.99
32,-0.03,0.99,0.13,40.79
32,-0.07,1.00,0.11,48.62
32,-0.07,0.94,0.10,43.56
32,-0.06,1.01,0.10,42.19
32,-0.02,1.00,0.11,42.19
32,-0.02,1.00,0.13,52.86
32,0.00,1.00,0.19,43.09
32,-0.03,0.99,0.12,43.09
32,-0.00,1.00,0.11,44.78
32,-0.07,1.00,0.10,41.99
32,-0.06,0.99,0.10,41.99
32,-0.03,1.00,0.12,42.82
32,-0.03,1.06,0.13,41.73
32,-0.01,0.99,0.13,42.08
32,-0.02,0.99,0.13,42.08
32,-0.02,1.00,0.12,46.28
32,-0.07,1.00,0.12,40.52
32,-0.07,1.00,0.11,40.52
32,-0.10,1.00,0.11,40.65
32,-0.04,1.00,0.07,45.14
32,-0.01,1.00,0.13,45.14
32,-0.02,1.00,0.14,42.14
32,-0.02,1.00,0.13,42.07
32,-0.05,0.99,0.13,41.87
32,-0.07,0.99,0.12,42.66
32,-0.07,0.95,0.11,40.59
32,-0.05,1.01,0.11,42.81
32,-0.01,1.01,0.13,42.81
32,-0.01,0.99,0.13,44.14
32,-0.00,0.99,0.19,49.88
32,-0.05,0.99,0.12,49.88
32,-0.07,0.99,0.11,48.63
32,-0.07,0.99,0.10,42.76
32,-0.06,1.00,0.10,42.76
32,-0.02,1.01,0.11,39.19
32,-0.02,1.00,0.13,41.85
32,-0.00,1.00,0.13,42.21
32,-0.03,0.99,0.14,40.65
32,-0.03,1.00,0.12,41.20
32,-0.07,1.00,0.12,44.80
32,-0.07,0.99,0.10,44.80
32,-0.09,1.01,0.12,48.72
32,-0.02,1.01,0.13,45.22
32,-0.00,1.00,0.13,45.22
32,-0.03,1.00,0.13,41.53
32,-0.03,1.00,0.12,50.10
32,-0.07,1.00,0.12,50.77
32,-0.08,0.99,0.10,42.94
32,-0.08,1.01,0.11,43.87
32,-0.05,1.01,0.11,44.22
32,-0.01,1.01,0.12,44.22
32,-0.02,1.00,0.14,46.92
32,-0.02,1.00,0.13,41.83
32,-0.06,0.99,0.13,41.83
32,-0.07,1.01,0.11,42.12
32,-0.07,1.01,0.10,45.57
32,-0.05,1.01,0.10,45.82
32,-0.01,1.00,0.12,42.68
32,-0.01,1.00,0.14,40.79
32,-0.01,1.00,0.14,46.20
32,-0.05,0.99,0.13,46.20
32,-0.05,0.99,0.12,44.83
32,-0.08,0.99,0.11,41.96
32,-0.06,1.00,0.11,41.96
32,-0.01,1.01,0.12,38.56
32,-0.01,1.01,0.14,39.15
32,-0.01,0.99,0.14,39.15
32,-0.04,1.00,0.14,41.70
32,-0.04,0.99,0.12,40.69
32,-0.08,0.99,0.12,41.38
32,-0.07,1.01,0.10,46.08
32,-0.07,0.99,0.13,48.69
32,-0.01,0.99,0.13,46.53
32,-0.06,1.01,0.11,46.53
32,-0.05,0.98,0.14,45.01
32,0.01,0.98,0.17,46.63
32,-0.08,1.01,0.11,46.63
32,-0.11,0.99,0.12,38.26
32,-0.11,0.99,0.13,40.20
33,-0.01,1.00,0.11,42.19
33,-0.01,0.94,0.15,45.10
33,-0.01,1.00,0.15,44.89
33,-0.06,0.99,0.14,51.16
33,-0.06,1.00,0.11,37.89
33,-0.10,1.00,0.11,41.54
33,-0.05,1.01,0.10,41.54
33,-0.02,0.99,0.13,40.66
33,-0.02,0.99,0.14,40.33
33,-0.03,1.00,0.14,40.33
33,-0.05,1.00,0.13,39.32
1,-0.12,1.00,0.19,37.97
1,-0.16,0.95,0.13,39.47
1,-0.16,0.95,0.06,48.57
1,-0.07,1.01,0.06,48.87
1,0.10,1.10,0.06,50.43
1,0.10,0.95,0.15,50.58
1,0.00,0.95,0.15,53.77
1,-0.11,0.98,0.22,53.77
1,-0.09,0.96,0.14,48.67
1,-0.16,0.96,0.14,37.41
1,-0.07,0.97,0.08,37.41
1,0.09,1.12,0.06,49.72
1,0.09,1.12,0.11,52.28
1,0.05,0.97,0.11,52.16
1,-0.06,0.97,0.21,49.03
1,-0.06,0.99,0.17,44.90
1,-0.15,0.99,0.17,43.08
1,-0.10,0.93,0.10,43.08
1,-0.10,1.13,0.06,56.75
1,0.06,1.13,0.04,42.82
1,0.07,0.99,0.10,42.82
1,-0.03,0.96,0.20,42.53
1,-0.03,0.96,0.17,47.80
1,-0.16,1.00,0.17,47.80
1,-0.15,0.93,0.10,42.19
1,-0.15,0.91,0.09,45.32
1,0.01,1.10,0.09,44.90
1,0.07,1.02,0.08,42.55
1,0.07,0.96,0.19,41.07
1,0.01,0.96,0.19,54.96
1,-0.15,1.00,0.19,54.96
1,-0.16,0.94,0.13,48.34
1,-0.16,0.94,0.14,53.00
1,-0.00,1.06,0.08,53.00
1,0.07,1.05,0.06,46.43
1,0.07,1.01,0.16,40.67
1,0.05,0.95,0.16,41.12
1,-0.11,0.99,0.21,50.52
1,-0.11,0.96,0.13,51.25
1,-0.15,0.96,0.13,44.84
1,-0.04,1.02,0.10,44.84
1,-0.02,1.08,0.05,46.65
1,0.04,1.08,0.01,45.52
1,0.06,0.97,0.14,45.52
1,-0.10,0.97,0.21,42.26
1,-0.10,0.97,0.14,38.23
1,-0.18,0.97,0.14,38.15
1,-0.07,0.99,0.10,50.69
1,-0.07,0.95,0.04,50.97
1,0.01,1.08,0.04,45.24
1,0.09,1.00,0.12,45.24
1,0.09,0.95,0.20,52.43
1,-0.05,0.95,0.24,52.17
1,-0.17,0.99,0.17,52.17
1,-0.16,0.95,0.11,45.82
1,-0.10,0.95,0.06,48.33
1,-0.01,1.08,0.06,48.33
1,0.11,1.04,0.10,42.70
1,0.11,1.02,0.18,52.03
1,-0.02,0.95,0.18,52.31
1,-0.16,0.98,0.18,40.56
1,-0.16,0.95,0.14,41.26
1,-0.13,0.95,0.14,44.16
1,-0.05,1.03,0.07,44.16
1,-0.01,1.07,0.07,51.14
1,0.11,1.07,0.10,47.31
1,0.00,0.96,0.16,47.31
1,-0.13,0.98,0.21,36.88
1,-0.13,0.98,0.13,51.73
1,-0.14,0.97,0.13,52.26
1,-0.07,1.00,0.08,49.13
1,-0.07,0.98,0.07,39.80
1,0.09,1.10,0.07,42.20
1,0.04,0.98,0.14,42.20
1,0.04,0.96,0.20,48.72
1,-0.10,0.96,0.23,47.82
1,-0.14,0.98,0.16,47.82
1,-0.10,0.95,0.09,47.39
1,-0.10,0.95,0.06,46.53
1,0.05,1.10,0.06,46.53
1,0.06,0.99,0.12,45.22
1,0.06,0.95,0.20,44.76
1,-0.06,0.95,0.20,45.17
1,-0.16,1.00,0.16,41.26
1,-0.16,0.94,0.11,40.56
1,-0.13,0.94,0.11,47.64
1,0.03,1.09,0.06,47.64
1,0.02,1.01,0.09,43.94
1,0.08,1.01,0.12,45.28
1,-0.01,0.95,0.18,45.28
1,-0.14,1.01,0.19,45.34
1,-0.14,1.05,0.12,44.96
1,-0.15,0.93,0.12,44.99
1,0.00,1.07,0.08,44.21
1,0.00,1.05,0.08,47.66
1,0.08,1.05,0.08,42.78
1,0.02,0.95,0.17,42.78
1,0.02,1.00,0.20,47.45
1,-0.11,1.00,0.20,40.63
1,-0.16,0.95,0.13,40.63
1,-0.03,1.05,0.08,41.60
1,-0.03,1.05,0.07,38.56
1,0.06,1.08,0.07,38.52
1,0.03,0.97,0.14,43.22
1,0.03,0.98,0.21,40.26
1,-0.10,0.98,0.21,48.26
1,-0.17,0.96,0.14,48.26
1,-0.17,1.00,0.10,42.33
1,-0.05,1.00,0.06,40.32
1,0.04,1.08,0.06,40.32
1,0.00,0.98,0.12,37.86
1,0.06,0.98,0.21,45.62
1,-0.06,0.95,0.21,45.62
1,-0.17,0.98,0.15,46.33
1,-0.17,0.97,0.11,55.24
1,-0.08,0.97,0.11,55.40
1,0.00,1.09,0.06,47.57
1,0.00,1.01,0.10,47.16
1,0.10,1.01,0.10,44.33
1,-0.01,0.96,0.20,44.33
1,-0.04,0.98,0.18,37.08
1,-0.16,0.98,0.19,45.57
1,-0.12,0.95,0.12,45.57
1,-0.03,1.07,0.07,42.33
1,-0.03,1.07,0.09,43.84
1,0.09,1.04,0.09,43.85
1,0.00,0.96,0.18,45.42
1,0.00,0.99,0.19,41.34
1,-0.14,0.99,0.19,43.54
1,-0.12,0.96,0.13,43.54
1,-0.12,1.03,0.07,36.79
1,-0.05,1.03,0.07,42.10
1,0.08,1.06,0.07,42.10
1,0.04,0.98,0.15,53.20
1,0.04,0.98,0.21,41.78
1,-0.13,0.97,0.21,41.78
1,-0.14,0.97,0.15,52.62
1,-0.14,0.99,0.09,42.60
1,-0.09,0.99,0.09,42.30
1,0.06,1.08,0.05,45.44
1,0.06,0.99,0.13,47.37
1,0.05,0.99,0.13,49.17
1,-0.09,0.95,0.20,49.17
1,-0.08,0.99,0.15,43.90
1,-0.14,0.99,0.17,57.85
1,-0.11,0.96,0.10,57.85
1,0.03,1.09,0.06,51.84
1,0.03,1.09,0.12,41.51
1,0.09,1.02,0.12,42.02
1,-0.05,0.94,0.20,56.12
1,-0.05,1.00,0.17,50.69
1,-0.15,1.00,0.17,48.02
1,-0.14,0.94,0.12,48.02
1,-0.13,1.07,0.06,47.13
1,-0.00,1.07,0.03,53.28
1,0.10,1.05,0.09,53.28
1,-0.02,0.94,0.18,46.08
1,-0.02,0.94,0.20,51.16
1,-0.12,1.00,0.20,51.16
1,-0.15,0.94,0.14,44.82
1,-0.15,0.98,0.07,43.60
1,-0.03,1.05,0.07,51.84
1,0.08,1.07,0.07,51.84
1,0.08,0.94,0.15,46.99
1,0.01,0.94,0.15,42.29
1,-0.10,0.98,0.21,42.29
1,-0.10,0.97,0.14,47.61
1,-0.17,0.97,0.08,47.19
1,-0.04,1.01,0.08,47.19
1,0.06,1.09,0.06,41.91
1,0.06,1.08,0.13,47.78
1,0.04,0.95,0.13,48.24
1,-0.06,0.97,0.22,55.29
1,-0.06,0.98,0.15,52.30
1,-0.17,0.98,0.15,46.47
1,-0.08,0.97,0.09,46.47
1,-0.09,1.11,0.07,42.30
1,0.04,1.11,0.11,42.77
1,0.07,0.98,0.11,42.77
1,-0.05,0.96,0.21,41.42
1,-0.05,0.96,0.17,48.60
1,-0.18,0.99,0.17,48.97
1,-0.10,0.96,0.11,48.97
1,-0.10,0.97,0.07,51.42
1,-0.00,1.09,0.07,51.19
1,0.09,1.02,0.09,51.19
1,0.09,0.96,0.20,44.60
1,0.00,0.96,0.23,50.32
1,-0.16,0.99,0.17,50.32
1,-0.13,0.94,0.12,45.25
1,-0.13,0.94,0.08,43.32
1,-0.04,1.06,0.08,43.32
1,0.07,1.04,0.07,48.42
1,0.07,1.03,0.18,50.21
1,0.03,0.97,0.18,50.24
1,-0.14,0.98,0.18,43.97
1,-0.14,0.97,0.14,46.64
1,-0.14,0.97,0.14,44.34
1,-0.06,1.01,0.08,44.34
1,-0.01,1.06,0.06,49.00
1,0.05,1.06,0.09,45.88
1,0.06,0.98,0.16,45.88
1,-0.10,0.96,0.20,44.04
1,-0.10,0.96,0.14,44.34
1,-0.14,0.98,0.14,44.46
1,-0.09,0.98,0.09,45.24
1,-0.09,1.08,0.06,49.00
1,0.03,1.08,0.06,46.63
1,0.08,1.00,0.12,46.63
1,0.11,0.95,0.20,50.44
1,-0.07,0.95,0.23,43.71
1,-0.15,1.00,0.17,43.71
1,-0.11,0.96,0.11,47.83
1,-0.11,0.96,0.05,38.82
1,0.01,1.07,0.05,38.82
1,0.10,1.03,0.11,34.97
1,0.10,1.02,0.18,49.57
1,-0.04,0.96,0.18,56.37
1,-0.13,1.00,0.18,56.37
1,-0.13,0.95,0.13,42.83
1,-0.13,0.95,0.18,50.54
1,-0.02,1.06,0.05,50.54
1,-0.03,1.05,0.08,41.11
1,0.09,1.05,0.16,44.10
1,-0.01,0.95,0.16,44.10
2,-0.08,0.97,0.20,42.65
2,-0.16,0.98,0.14,42.65
2,-0.08,0.99,0.10,48.38
2,-0.08,0.99,0.07,43.77
2,0.06,1.11,0.07,43.77
2,0.04,0.96,0.12,41.21
2,0.04,0.96,0.21,54.16
2,-0.05,0.96,0.21,54.23
2,-0.16,0.98,0.16,51.10
2,-0.16,0.95,0.10,47.69
2,-0.11,0.95,0.07,52.31
2,0.03,1.10,0.07,52.31
2,0.01,1.00,0.10,43.47
2,0.07,1.00,0.21,44.57
2,-0.02,0.96,0.21,44.57
2,-0.16,0.99,0.17,49.09
2,-0.16,0.94,0.11,44.60
2,-0.12,0.94,0.11,44.63
2,0.00,1.08,0.07,46.19
2,0.00,1.02,0.08,51.59
2,0.07,1.02,0.08,40.14
2,0.01,0.97,0.18,40.14
2,0.05,0.98,0.19,43.03
2,-0.14,0.98,0.13,45.57
2,-0.14,0.96,0.13,45.57
2,-0.03,1.06,0.08,42.05
2,-0.03,1.06,0.06,35.77
2,0.06,1.05,0.06,35.24
2,0.04,0.98,0.16,51.69
2,0.04,0.98,0.19,45.65
2,-0.12,0.98,0.19,43.41
2,-0.15,0.97,0.13,43.41
2,-0.13,1.01,0.09,45.58
2,-0.06,1.01,0.11,41.11
2,0.04,1.07,0.05,41.11
2,0.07,0.99,0.14,44.63
2,0.07,0.99,0.21,38.06
2,-0.08,0.97,0.21,38.06
2,-0.15,0.98,0.15,46.87
2,-0.15,0.98,0.11,37.77
2,-0.09,0.98,0.11,37.64
2,0.02,1.07,0.05,43.91
2,0.02,1.01,0.12,50.31
2,0.09,1.01,0.12,42.75
2,-0.05,0.96,0.19,42.75
2,-0.03,1.00,0.17,49.36
2,-0.16,1.00,0.11,43.36
2,-0.11,0.97,0.11,43.36
2,-0.03,1.06,0.06,45.30
2,-0.03,1.10,0.10,47.47
2,0.11,1.04,0.10,47.07
2,-0.01,0.96,0.18,44.72
2,-0.01,0.99,0.18,45.74
2,-0.13,0.99,0.18,45.59
2,-0.14,0.96,0.14,45.59
2,-0.18,1.04,0.07,42.88
2,-0.06,1.04,0.08,41.98
2,0.10,1.07,0.08,41.98
2,0.01,0.96,0.16,36.23
2,0.01,0.96,0.19,44.23
2,-0.11,0.98,0.19,44.37
2,-0.15,0.98,0.14,45.94
2,-0.15,0.94,0.09,44.57
2,-0.07,1.01,0.09,46.64
2,0.07,1.08,0.07,46.64
2,0.07,0.97,0.12,49.09
2,0.03,0.97,0.08,51.35
2,-0.09,0.97,0.20,51.35
2,-0.08,0.98,0.14,45.59
2,-0.15,0.98,0.10,44.77
2,-0.10,0.97,0.10,44.77
2,0.04,1.10,0.07,49.53
2,0.04,1.12,0.10,45.91
2,0.07,1.00,0.10,46.08
2,-0.04,0.96,0.21,43.73
2,-0.04,0.99,0.16,54.84
2,-0.15,0.99,0.16,48.94
2,-0.13,0.96,0.11,48.94
2,-0.17,1.10,0.07,46.54
2,0.02,1.10,0.08,44.96
2,0.08,1.01,0.08,44.96
2,-0.01,0.96,0.19,45.35
2,-0.01,0.96,0.18,47.69
2,-0.15,0.99,0.18,47.10
2,-0.14,0.94,0.12,53.37
2,-0.14,1.07,0.08,39.56
2,-0.02,1.07,0.08,46.18
2,0.06,1.04,0.08,46.18
2,0.03,0.96,0.17,41.87
2,0.03,0.96,0.13,49.12
2,-0.12,0.99,0.20,49.12
2,-0.15,0.95,0.13,48.54
2,-0.15,0.95,0.09,44.86
2,-0.04,1.03,0.09,44.86
2,0.05,1.07,0.06,43.13
2,0.05,1.10,0.14,39.32
2,0.05,0.98,0.14,44.64
2,-0.09,0.97,0.21,44.64
2,-0.09,0.97,0.14,42.32
2,-0.16,0.97,0.16,42.44
2,-0.08,0.99,0.10,42.44
2,-0.10,1.07,0.06,47.15
2,0.02,1.07,0.13,43.24
2,0.08,1.00,0.13,43.24
2,-0.06,0.96,0.21,42.89
2,-0.06,0.99,0.16,50.76
2,-0.16,0.99,0.16,50.40
2,-0.10,0.97,0.12,37.86
2,-0.10,1.08,0.06,43.52
2,0.00,1.08,0.06,44.75
2,0.10,1.01,0.11,44.75
2,0.10,0.97,0.19,51.33
2,-0.02,0.97,0.24,44.23
2,-0.15,0.99,0.17,44.23
2,-0.11,0.97,0.13,50.67
2,-0.11,0.97,0.07,43.28
2,-0.04,1.05,0.07,43.33
2,0.10,1.04,0.10,44.11
2,0.10,1.02,0.17,46.36
2,0.01,0.96,0.17,38.41
2,-0.13,0.98,0.19,38.41
2,-0.13,0.97,0.13,44.49
2,-0.13,0.97,0.14,41.00
2,-0.07,1.02,0.08,41.00
2,-0.11,1.07,0.07,47.05
2,0.07,1.07,0.15,39.90
2,0.03,0.96,0.15,39.90
2,-0.10,0.97,0.20,44.26
2,-0.10,0.99,0.14,46.60
2,-0.15,0.99,0.14,46.49
2,-0.09,0.99,0.09,45.71
2,-0.09,1.07,0.07,49.77
2,0.06,1.07,0.07,42.72
2,0.05,0.99,0.13,42.72
2,0.05,0.96,0.21,46.06
2,-0.07,0.96,0.22,48.85
2,-0.13,1.00,0.16,48.85
2,-0.12,0.96,0.10,51.22
2,-0.12,0.96,0.06,47.20
2,0.03,1.09,0.06,47.54
2,0.08,1.00,0.11,49.11
2,0.08,1.01,0.20,51.59
2,-0.04,0.95,0.20,51.53
2,-0.14,1.00,0.17,51.53
2,-0.14,0.94,0.11,47.93
2,-0.14,0.94,0.12,42.78
2,0.00,1.08,0.06,42.78
2,0.08,1.04,0.09,46.29
2,0.08,1.04,0.17,52.52
2,0.00,0.96,0.17,52.52
2,-0.12,1.00,0.19,50.14
2,-0.12,0.95,0.12,55.96
2,-0.15,0.95,0.12,44.42
2,-0.03,1.05,0.08,44.42
2,-0.03,1.06,0.08,42.00
2,0.06,1.06,0.07,47.75
2,0.03,0.97,0.14,47.75
2,0.03,0.98,0.20,47.35
2,-0.10,0.98,0.13,42.51
2,-0.16,0.96,0.13,42.51
2,-0.05,1.02,0.09,41.40
2,-0.05,1.01,0.08,40.91
2,0.04,1.07,0.08,40.67
2,0.05,0.97,0.13,38.32
2,0.05,0.98,0.21,42.44
2,-0.06,0.98,0.21,40.98
2,-0.16,0.97,0.15,40.98
2,-0.15,0.98,0.11,45.17
2,-0.08,0.98,0.11,48.41
2,0.01,1.09,0.05,48.41
2,0.08,0.99,0.11,52.91
2,0.08,0.99,0.19,42.76
2,-0.02,0.97,0.19,42.80
2,-0.16,0.99,0.16,42.02
2,-0.16,0.97,0.11,53.74
2,-0.11,0.97,0.11,50.89
2,-0.02,1.06,0.06,50.89
2,-0.02,1.01,0.09,46.67
2,0.09,1.01,0.12,38.06
2,-0.00,0.97,0.18,38.06
2,-0.02,0.98,0.18,53.74
2,-0.15,0.98,0.13,38.38
2,-0.12,0.95,0.13,38.38
2,-0.06,1.05,0.08,42.33
2,-0.06,1.04,0.08,48.61
2,0.08,1.04,0.08,48.76
2,0.03,0.97,0.17,50.32
2,0.03,0.97,0.20,52.54
2,-0.13,0.97,0.20,44.07
2,-0.13,0.97,0.13,44.07
2,-0.14,1.01,0.08,52.85
2,-0.07,1.01,0.07,44.48
2,0.05,1.07,0.07,44.48
2,0.06,0.99,0.14,52.69
2,0.06,0.99,0.20,50.08
2,-0.09,0.96,0.20,50.75
2,-0.14,0.98,0.14,53.10
2,-0.14,0.98,0.09,47.76
2,-0.10,0.98,0.09,47.52
2,0.03,1.08,0.06,47.52
2,0.03,1.00,0.13,49.94
2,0.07,1.00,0.14,46.15
2,-0.06,0.96,0.20,46.15
2,-0.14,1.00,0.16,44.43
2,-0.14,1.00,0.11,43.37
2,-0.12,0.96,0.11,43.37
2,0.00,1.07,0.06,50.73
2,0.00,1.09,0.11,43.20
2,0.08,1.03,0.11,43.23
2,-0.02,0.94,0.18,44.01
2,-0.02,1.00,0.17,47.60
2,-0.13,1.00,0.17,53.74
2,-0.14,0.95,0.13,53.74
2,-0.15,1.05,0.07,44.58
2,-0.03,1.05,0.08,49.40
2,0.08,1.06,0.08,49.40
2,0.01,0.96,0.17,49.91
2,0.01,0.96,0.20,48.78
2,-0.10,0.99,0.20,48.65
2,-0.15,0.95,0.13,48.65
2,-0.15,1.02,0.09,42.99
2,-0.05,1.02,0.09,38.84
2,0.06,1.07,0.08,38.84
2,0.09,0.96,0.14,44.05
2,0.03,0.96,0.14,39.21
2,-0.07,0.99,0.21,39.21
2,-0.17,0.96,0.15,46.06
2,-0.17,0.96,0.09,45.91
2,-0.07,0.99,0.09,45.45
2,0.04,1.09,0.08,45.45
2,0.04,1.10,0.12,53.39
2,0.05,0.98,0.12,43.21
2,-0.05,0.97,0.21,43.21
3,-0.14,0.99,0.16,52.07
3,-0.13,0.96,0.12,45.02
3,-0.13,1.06,0.07,40.70
3,-0.03,1.06,0.07,48.29
3,0.07,1.02,0.08,48.29
3,0.08,0.97,0.17,42.66
3,0.02,0.97,0.13,43.59
3,-0.14,0.99,0.19,43.59
3,-0.14,0.97,0.13,43.51
3,-0.14,0.97,0.09,45.75
3,-0.04,1.03,0.09,45.75
3,0.06,1.05,0.07,46.27
3,0.06,1.05,0.16,41.40
3,0.04,0.98,0.16,41.13
3,-0.11,0.97,0.18,40.35
3,-0.11,0.98,0.13,44.77
3,-0.14,0.98,0.15,41.29
3,-0.08,1.01,0.09,41.29
3,-0.09,1.08,0.06,49.74
3,0.04,1.08,0.14,42.29
3,0.07,0.99,0.14,42.29
3,-0.07,0.96,0.20,39.87
3,-0.07,0.98,0.15,39.91
3,-0.15,0.98,0.15,40.35
3,-0.10,0.98,0.10,45.05
3,-0.10,1.07,0.05,48.14
3,0.01,1.07,0.05,44.85
3,0.08,1.02,0.12,44.85
3,0.09,0.95,0.19,44.48
3,-0.03,0.95,0.17,41.56
3,-0.14,1.00,0.17,41.56
3,-0.13,0.96,0.12,38.20
3,-0.13,0.96,0.07,37.92
3,-0.02,1.05,0.07,38.13
3,0.09,1.04,0.10,43.61
3,0.09,1.01,0.18,49.35
3,-0.00,0.95,0.18,40.74
3,-0.12,0.99,0.18,40.74
3,-0.12,0.96,0.13,40.90
3,-0.14,0.96,0.14,48.06
3,-0.05,1.03,0.07,48.06
3,0.07,1.06,0.08,45.05
3,0.07,1.06,0.14,42.15
3,0.02,0.96,0.14,42.15
3,-0.09,0.99,0.20,48.63
3,-0.09,0.96,0.13,45.11
3,-0.15,0.96,0.13,45.22
3,-0.07,1.00,0.09,46.79
3,-0.07,1.07,0.08,49.29
3,0.06,1.07,0.07,45.50
3,0.04,0.97,0.13,45.50
3,0.01,0.96,0.21,46.65
3,-0.06,0.96,0.15,45.58
3,-0.15,0.98,0.15,45.58
3,-0.10,0.97,0.09,43.25
3,-0.10,0.96,0.07,45.73
3,0.03,1.09,0.07,46.14
3,0.05,0.99,0.11,45.36
3,0.05,0.97,0.20,52.33
3,-0.03,0.97,0.20,42.94
3,-0.15,0.99,0.17,42.94
3,-0.18,0.96,0.10,45.36
3,-0.12,0.96,0.08,55.97
3,0.00,1.07,0.08,55.97
3,0.07,1.01,0.09,52.97
3,0.07,1.01,0.19,46.14
3,0.01,0.96,0.19,45.37
3,-0.13,0.99,0.18,52.42
3,-0.13,0.95,0.12,49.76
3,-0.14,0.95,0.12,43.98
3,-0.04,1.06,0.09,43.98
3,-0.04,1.03,0.09,49.83
3,0.05,1.03,0.11,56.14
3,0.04,0.97,0.17,56.14
3,0.02,0.98,0.18,53.57
3,-0.11,0.98,0.13,52.63
3,-0.14,0.97,0.13,52.63
3,-0.06,1.03,0.09,43.15
3,-0.06,1.06,0.07,39.05
3,0.04,1.06,0.07,38.36
3,0.05,0.99,0.15,43.06
3,0.05,0.97,0.19,46.92
3,-0.09,0.97,0.19,42.13
3,-0.14,0.98,0.13,42.13
3,-0.14,1.01,0.10,40.33
3,-0.08,1.01,0.06,52.17
3,0.01,1.07,0.06,52.17
3,0.08,1.00,0.12,38.07
3,0.08,1.00,0.19,46.43
3,-0.05,0.96,0.19,46.89
3,-0.14,0.98,0.15,45.33
3,-0.14,0.98,0.10,49.74
3,-0.11,0.98,0.10,45.35
3,-0.01,1.07,0.07,45.35
3,-0.03,1.02,0.11,47.11
3,0.10,1.02,0.12,47.18
3,-0.03,0.95,0.18,47.18
3,-0.14,0.99,0.17,39.24
3,-0.14,0.99,0.12,49.33
3,-0.12,0.97,0.12,49.33
3,-0.04,1.04,0.06,48.82
3,-0.04,1.05,0.10,39.14
3,0.09,1.05,0.10,39.72
3,0.02,0.96,0.18,42.07
3,0.02,0.99,0.19,42.29
3,-0.11,0.99,0.20,45.02
3,-0.14,0.97,0.13,45.02
3,-0.13,1.02,0.08,46.24
3,-0.07,1.02,0.08,55.19
3,0.07,1.06,0.08,55.19
3,0.03,0.97,0.15,42.89
3,0.03,0.97,0.20,36.66
3,-0.08,0.97,0.20,36.11
3,-0.14,0.98,0.14,44.72
3,-0.14,0.98,0.09,45.02
3,-0.09,0.98,0.09,37.81
3,0.04,1.08,0.07,37.81
3,0.05,0.99,0.13,48.36
3,0.05,0.99,0.14,43.49
3,-0.06,0.97,0.20,43.49
3,-0.14,0.99,0.15,43.27
3,-0.14,0.99,0.10,43.86
3,-0.12,0.96,0.10,44.30
3,0.01,1.07,0.08,39.60
3,0.01,1.07,0.11,47.70
3,0.07,1.01,0.11,49.66
3,-0.01,0.96,0.19,49.66
3,-0.01,1.00,0.18,45.40
3,-0.13,1.00,0.17,40.01
3,-0.13,0.95,0.11,40.01
3,-0.15,1.06,0.08,50.63
3,-0.02,1.06,0.09,43.04
3,0.06,1.02,0.09,43.04
3,0.01,0.96,0.17,42.63
3,0.01,0.99,0.18,44.04
3,-0.11,0.99,0.18,44.48
3,-0.14,0.96,0.13,46.83
3,-0.14,1.05,0.08,48.38
3,-0.04,1.05,0.08,47.97
3,0.05,1.05,0.08,47.97
3,0.04,0.97,0.15,44.32
3,0.04,0.97,0.14,40.28
3,-0.09,0.98,0.20,40.28
3,-0.15,0.97,0.13,41.74
3,-0.15,0.95,0.09,46.93
3,-0.06,1.01,0.09,46.60
3,0.03,1.06,0.07,47.39
3,0.03,0.99,0.13,41.25
3,0.05,0.99,0.13,45.26
3,-0.06,0.97,0.20,45.26
3,-0.02,0.98,0.14,39.88
3,-0.15,0.98,0.17,47.69
3,-0.08,0.99,0.11,47.69
3,0.01,1.06,0.07,48.09
3,0.01,1.06,0.11,40.62
3,0.07,1.00,0.11,40.62
3,-0.02,0.96,0.19,48.19
3,-0.02,0.98,0.17,43.71
3,-0.15,0.98,0.17,43.36
3,-0.11,0.97,0.11,37.10
3,-0.11,1.05,0.07,42.04
3,-0.03,1.05,0.07,55.61
3,0.08,1.02,0.10,55.61
3,0.06,0.97,0.18,44.70
3,0.00,0.97,0.18,46.80
3,-0.13,0.98,0.18,46.80
3,-0.13,0.97,0.13,54.30
3,-0.13,0.97,0.08,46.08
3,-0.06,1.03,0.08,46.14
3,0.07,1.05,0.09,44.58
3,0.07,0.98,0.16,49.92
3,0.03,0.98,0.16,46.85
3,-0.10,0.97,0.18,46.85
3,-0.07,0.97,0.14,43.07
3,-0.13,0.97,0.15,44.20
3,-0.07,1.01,0.08,44.20
3,0.05,1.06,0.08,45.43
3,0.05,1.06,0.13,50.50
3,0.05,0.99,0.13,50.11
3,-0.07,0.96,0.18,46.20
3,-0.07,0.98,0.15,48.38
3,-0.13,0.98,0.15,48.10
3,-0.11,0.96,0.10,48.10
3,-0.11,1.07,0.07,52.12
3,0.02,1.07,0.12,40.61
3,0.07,1.00,0.12,40.61
3,0.09,0.95,0.19,44.30
3,-0.04,0.95,0.17,50.88
3,-0.14,0.99,0.17,50.88
3,-0.13,0.96,0.10,43.30
3,-0.13,1.00,0.06,47.32
3,-0.01,1.06,0.06,47.56
3,0.07,1.03,0.10,44.42
3,0.07,0.96,0.19,54.58
3,-0.01,0.96,0.19,43.90
3,-0.12,1.00,0.18,43.90
3,-0.08,0.97,0.12,45.12
3,-0.14,0.97,0.08,40.58
3,-0.04,1.05,0.08,40.58
3,0.06,1.04,0.10,41.67
3,0.06,1.04,0.17,43.63
3,0.02,0.96,0.17,43.77
3,-0.09,0.99,0.18,42.98
3,-0.09,0.96,0.12,45.02
3,-0.15,0.96,0.12,42.87
3,-0.05,1.03,0.08,42.87
3,-0.05,1.06,0.08,49.13
3,0.04,1.06,0.08,49.81
3,0.04,0.97,0.14,49.81
3,-0.07,0.97,0.20,45.42
3,-0.07,0.97,0.13,48.15
3,-0.15,0.98,0.13,48.15
3,-0.08,0.99,0.09,51.71
3,-0.08,0.94,0.07,47.55
3,0.02,1.07,0.07,47.59
3,0.05,0.99,0.13,46.03
3,0.05,0.97,0.20,46.33
3,-0.03,0.97,0.20,57.57
3,-0.15,0.98,0.15,57.57
3,-0.16,0.97,0.11,52.18
3,-0.10,0.97,0.07,52.16
3,-0.01,1.06,0.07,52.16
3,0.07,1.00,0.11,46.68
3,0.07,1.02,0.20,53.18
3,-0.00,0.96,0.20,52.64
3,-0.14,0.98,0.17,52.64
3,-0.14,0.97,0.11,52.18
3,-0.12,0.97,0.11,43.41
3,-0.04,1.05,0.07,43.41
3,-0.01,1.03,0.10,49.09
3,0.06,1.03,0.10,47.37
3,0.02,0.98,0.17,47.37
3,-0.12,0.98,0.19,49.90
4,-0.14,0.99,0.14,47.67
4,-0.16,1.00,0.09,52.19
4,-0.10,1.00,0.07,50.55
4,0.03,1.06,0.07,50.55
4,0.06,1.00,0.14,50.18
4,0.06,1.00,0.19,52.89
4,-0.06,0.96,0.19,52.58
4,-0.14,0.99,0.15,42.40
4,-0.14,0.98,0.10,38.48
4,-0.11,0.98,0.10,53.66
4,-0.00,1.05,0.07,53.66
4,-0.00,1.02,0.11,45.38
4,0.08,1.02,0.12,43.90
4,-0.03,0.96,0.18,43.90
4,-0.00,1.00,0.17,35.69
4,-0.13,1.00,0.11,38.31
4,-0.13,0.96,0.11,38.31
4,-0.03,1.05,0.07,42.66
4,-0.03,1.03,0.10,43.11
4,0.08,1.03,0.10,43.17
4,0.01,0.96,0.17,38.47
4,0.01,0.99,0.19,49.57
4,-0.11,0.99,0.19,44.07
4,-0.13,0.96,0.13,44.07
4,-0.18,1.03,0.07,46.67
4,-0.05,1.03,0.08,49.68
4,0.06,1.06,0.08,49.68
4,0.02,0.97,0.14,43.95
4,0.02,0.97,0.19,48.03
4,-0.08,0.98,0.19,48.10
4,-0.15,0.97,0.13,55.93
4,-0.15,1.00,0.09,42.44
4,-0.08,1.00,0.09,47.55
4,0.04,1.06,0.08,47.55
4,0.05,0.98,0.12,47.22
4,0.05,0.98,0.07,42.20
4,-0.05,0.97,0.20,42.20
4,-0.15,0.98,0.15,42.73
4,-0.15,0.98,0.09,39.09
4,-0.09,0.98,0.09,39.09
4,0.01,1.08,0.07,36.49
4,0.01,1.12,0.11,46.10
4,0.05,0.99,0.11,45.71
4,-0.02,0.97,0.19,54.32
4,-0.02,0.98,0.16,51.47
4,-0.14,0.98,0.17,45.28
4,-0.11,0.97,0.11,45.28
4,-0.07,1.06,0.07,38.87
4,-0.01,1.06,0.10,48.41
4,0.07,1.02,0.10,48.41
4,0.01,0.97,0.18,41.18
4,0.01,0.99,0.18,44.77
4,-0.12,0.99,0.18,45.32
4,-0.13,0.96,0.13,46.10
4,-0.13,1.05,0.08,47.48
4,-0.04,1.05,0.08,51.67
4,0.05,1.04,0.08,51.67
4,0.04,0.98,0.18,42.44
4,0.04,0.98,0.18,49.05
4,-0.10,0.97,0.18,49.05
4,-0.13,0.97,0.14,39.27
4,-0.13,0.97,0.08,50.06
4,-0.07,1.03,0.08,49.70
4,0.04,1.04,0.07,46.57
4,0.04,1.06,0.15,42.95
4,0.05,0.99,0.15,38.47
4,-0.07,0.97,0.20,38.47
4,-0.07,0.98,0.14,48.37
4,-0.14,0.98,0.16,48.64
4,-0.09,0.99,0.09,48.64
4,-0.12,1.05,0.07,42.01
4,0.00,1.05,0.12,48.32
4,0.08,1.01,0.12,48.32
4,-0.04,0.96,0.19,39.30
4,-0.04,0.98,0.16,50.18
4,-0.14,0.98,0.16,50.80
4,-0.11,0.97,0.11,47.66
4,-0.11,1.06,0.07,47.53
4,-0.03,1.06,0.07,50.74
4,0.08,1.03,0.11,50.74
4,0.11,0.96,0.17,47.76
4,-0.01,0.96,0.17,50.43
4,-0.12,0.99,0.17,50.43
4,-0.14,0.97,0.12,47.82
4,-0.14,0.97,0.07,41.87
4,-0.05,1.04,0.07,41.85
4,0.08,1.05,0.10,41.85
4,0.08,1.03,0.15,55.97
4,0.01,0.97,0.15,50.86
4,-0.09,0.98,0.19,50.86
4,-0.08,0.97,0.13,49.12
4,-0.14,0.97,0.13,45.86
4,-0.07,1.01,0.07,45.86
4,0.06,1.06,0.09,45.11
4,0.06,1.06,0.15,43.17
4,0.03,0.98,0.15,43.17
4,-0.07,0.97,0.19,45.50
4,-0.07,0.97,0.16,40.07
4,-0.14,0.97,0.16,40.59
4,-0.09,0.99,0.08,39.02
4,-0.09,1.08,0.08,49.57
4,0.03,1.08,0.12,56.57
4,0.04,0.99,0.12,56.57
4,0.03,0.97,0.20,42.48
4,-0.04,0.97,0.15,42.69
4,-0.14,0.99,0.15,42.69
4,-0.12,0.98,0.10,44.96
4,-0.12,0.94,0.07,45.63
4,0.00,1.07,0.07,45.43
4,0.07,1.00,0.11,44.65
4,0.07,0.96,0.19,48.15
4,-0.01,0.96,0.19,44.53
4,-0.13,0.99,0.17,44.53
4,-0.14,0.95,0.11,42.03
4,-0.14,0.95,0.08,46.59
4,-0.01,1.06,0.08,46.59
4,0.06,1.03,0.10,54.83
4,0.06,1.03,0.18,43.98
4,0.02,0.98,0.18,44.06
4,-0.12,0.98,0.18,43.27
4,-0.12,0.97,0.12,45.63
4,-0.14,0.97,0.12,42.28
4,-0.06,1.04,0.08,42.28
4,-0.06,1.04,0.09,35.92
4,0.04,1.04,0.09,36.35
4,0.04,0.98,0.15,36.35
4,0.04,0.97,0.19,45.68
4,-0.08,0.97,0.14,42.03
4,-0.14,0.97,0.14,42.03
4,-0.07,1.00,0.10,53.47
4,-0.07,1.05,0.07,41.30
4,0.01,1.05,0.07,41.36
4,0.07,1.00,0.13,47.63
4,0.07,0.96,0.19,43.01
4,-0.05,0.96,0.19,49.20
4,-0.14,0.98,0.15,49.20
4,-0.15,0.98,0.11,45.08
4,-0.09,0.98,0.07,45.46
4,-0.01,1.05,0.07,45.46
4,0.07,1.01,0.12,52.52
4,0.07,1.01,0.18,45.81
4,-0.02,0.97,0.18,46.10
4,-0.13,0.99,0.17,50.80
4,-0.13,0.98,0.11,59.12
4,-0.11,0.98,0.11,44.97
4,-0.04,1.05,0.07,44.97
4,-0.05,1.03,0.11,53.37
4,0.08,1.03,0.11,45.89
4,0.01,0.96,0.17,45.89
4,-0.11,0.99,0.18,54.28
4,-0.11,0.99,0.13,41.78
4,-0.14,0.97,0.13,41.78
4,-0.06,1.03,0.08,41.82
4,-0.06,1.05,0.10,45.07
4,0.07,1.05,0.10,44.91
4,0.03,0.97,0.15,45.69
4,0.03,0.98,0.18,43.91
4,-0.08,0.98,0.18,47.05
4,-0.14,0.98,0.14,47.05
4,-0.15,1.00,0.09,45.94
4,-0.09,1.00,0.07,47.78
4,0.04,1.06,0.07,47.78
4,0.04,0.99,0.14,44.62
4,0.04,0.97,0.19,39.86
4,-0.05,0.97,0.19,39.47
4,-0.13,0.98,0.14,42.60
4,-0.13,0.98,0.09,49.86
4,-0.11,0.98,0.09,39.50
4,0.02,1.06,0.09,39.50
4,0.05,1.01,0.12,40.85
4,0.05,1.01,0.12,46.36
4,-0.03,0.96,0.19,46.36
4,-0.13,1.00,0.16,45.19
4,-0.13,1.00,0.11,48.73
4,-0.12,0.97,0.11,49.24
4,-0.02,1.06,0.07,49.24
4,-0.02,1.02,0.10,48.37
4,0.06,1.02,0.10,46.06
4,0.00,0.97,0.18,46.06
4,0.00,0.99,0.18,41.91
4,-0.12,0.99,0.18,45.92
4,-0.13,0.96,0.12,45.92
4,-0.17,1.05,0.08,48.06
4,-0.04,1.05,0.09,46.86
4,0.06,1.04,0.09,46.86
4,0.03,0.97,0.16,52.74
4,0.03,0.99,0.18,38.64
4,-0.09,0.99,0.18,38.39
4,-0.14,0.97,0.13,40.74
4,-0.14,1.02,0.08,49.83
4,-0.05,1.02,0.08,47.49
4,0.04,1.05,0.07,47.49
4,0.05,0.98,0.14,46.65
4,0.05,0.98,0.13,48.12
4,-0.06,0.97,0.19,48.12
4,-0.14,0.97,0.14,45.20
4,-0.14,0.97,0.09,50.48
4,-0.08,0.99,0.09,50.67
4,0.01,1.05,0.08,45.18
4,0.01,1.05,0.13,47.50
4,0.07,0.99,0.13,40.98
4,-0.03,0.97,0.19,40.98
4,-0.02,0.99,0.14,35.58
4,-0.14,0.99,0.17,44.82
4,-0.11,0.97,0.10,44.82
4,-0.02,1.04,0.07,55.27
4,-0.02,1.04,0.10,55.33
4,0.07,1.02,0.10,55.33
4,-0.00,0.97,0.18,48.87
4,-0.00,0.99,0.16,49.30
4,-0.14,0.99,0.16,45.11
4,-0.12,0.97,0.12,45.11
4,-0.12,1.04,0.07,45.00
4,-0.05,1.04,0.09,43.85
4,0.06,1.03,0.09,43.85
4,0.08,0.97,0.17,42.78
4,0.02,0.97,0.19,49.65
4,-0.10,0.98,0.19,49.65
4,-0.13,0.97,0.13,46.85
4,-0.13,0.96,0.08,45.07
4,-0.07,1.02,0.08,44.74
4,0.06,1.04,0.08,40.04
4,0.06,0.99,0.14,45.92
4,0.04,0.99,0.14,39.70
4,-0.08,0.96,0.19,39.70
4,-0.08,0.99,0.14,43.03
4,-0.14,0.99,0.14,46.85
4,-0.10,1.00,0.08,46.85
4,0.03,1.06,0.08,41.82
4,0.03,1.06,0.14,48.12
4,0.06,1.00,0.14,48.45
4,-0.05,0.97,0.19,49.23
4,-0.05,1.00,0.16,48.85
5,-0.13,0.96,0.11,37.00
5,-0.13,0.96,0.08,39.63
5,-0.03,1.04,0.08,39.12
5,0.08,1.04,0.10,46.96
5,0.08,1.02,0.18,42.23
5,0.00,0.96,0.18,42.77
5,-0.10,0.99,0.18,42.77
5,-0.07,0.96,0.12,37.44
5,-0.13,0.96,0.08,38.37
5,-0.05,1.03,0.08,38.37
5,0.04,1.04,0.10,50.28
5,0.04,1.04,0.15,43.15
5,0.03,0.97,0.15,43.15
5,-0.07,0.98,0.19,44.24
5,-0.07,0.97,0.14,43.26
5,-0.15,0.97,0.14,43.73
5,-0.07,1.01,0.08,47.65
5,-0.07,1.05,0.08,58.86
5,0.03,1.05,0.08,46.03
5,0.04,0.99,0.13,46.03
5,0.03,0.98,0.20,40.19
5,-0.03,0.98,0.15,53.59
5,-0.14,0.98,0.15,53.59
5,-0.10,0.98,0.09,47.29
5,-0.10,0.99,0.08,43.88
5,-0.01,1.06,0.08,44.31
5,0.06,1.00,0.12,45.87
5,0.06,0.98,0.19,56.89
5,-0.02,0.98,0.19,50.53
5,-0.14,0.99,0.17,50.53
5,-0.17,0.97,0.12,49.71
5,-0.11,0.97,0.07,44.23
5,-0.03,1.06,0.07,44.23
5,0.06,1.01,0.10,44.01
5,0.06,1.01,0.19,41.13
5,0.02,0.97,0.19,40.79
5,-0.11,0.99,0.16,49.40
5,-0.11,0.97,0.12,46.97
5,-0.13,0.97,0.12,42.35
5,-0.05,1.04,0.08,42.35
5,-0.05,1.03,0.09,49.14
5,0.06,1.03,0.10,52.73
5,0.04,0.98,0.17,52.73
5,0.04,0.98,0.18,42.40
5,-0.08,0.98,0.13,49.21
5,-0.13,0.97,0.13,49.21
5,-0.08,1.02,0.09,37.72
5,-0.08,1.05,0.07,47.51
5,0.04,1.05,0.07,47.03
5,0.06,0.99,0.14,47.82
5,0.06,0.97,0.19,54.30
5,-0.07,0.97,0.19,47.02
5,-0.13,0.98,0.14,47.02
5,-0.16,0.99,0.10,39.83
5,-0.10,0.99,0.07,40.47
5,0.01,1.05,0.07,40.47
5,0.07,1.01,0.13,39.56
5,0.07,1.01,0.18,52.25
5,-0.03,0.97,0.18,52.03
5,-0.13,0.99,0.17,48.89
5,-0.13,0.97,0.12,42.94
5,-0.11,0.97,0.12,43.24
5,-0.03,1.05,0.08,43.24
5,-0.06,1.02,0.10,39.65
5,0.07,1.02,0.11,41.11
5,0.00,0.97,0.17,41.11
5,-0.11,0.99,0.17,46.50
5,-0.11,0.99,0.12,45.60
5,-0.13,0.96,0.12,45.60
5,-0.05,1.03,0.08,49.94
5,-0.05,1.04,0.10,44.07
5,0.06,1.04,0.10,43.81
5,0.02,0.97,0.16,45.38
5,0.02,0.98,0.19,45.38
5,-0.09,0.98,0.20,39.57
5,-0.13,0.97,0.13,39.57
5,-0.13,1.02,0.08,50.46
5,-0.07,1.02,0.09,40.52
5,0.04,1.06,0.09,40.52
5,0.04,0.99,0.14,46.47
5,0.04,0.97,0.19,47.06
5,-0.06,0.97,0.19,47.53
5,-0.14,0.98,0.14,39.70
5,-0.14,1.00,0.09,49.42
5,-0.09,1.00,0.09,43.74
5,0.01,1.06,0.08,43.74
5,0.04,0.99,0.12,48.12
5,0.04,0.99,0.12,51.32
5,-0.02,0.98,0.19,51.32
5,-0.14,0.98,0.15,48.24
5,-0.14,0.98,0.10,55.00
5,-0.12,0.97,0.10,55.19
5,-0.02,1.06,0.08,46.57
5,-0.02,1.01,0.11,61.92
5,0.06,1.01,0.11,51.66
5,0.01,0.97,0.19,51.66
5,0.01,0.99,0.17,41.53
5,-0.11,0.99,0.18,52.93
5,-0.12,0.97,0.12,52.93
5,-0.10,1.05,0.08,49.23
5,-0.04,1.05,0.09,47.14
5,0.05,1.01,0.09,47.14
5,0.03,0.97,0.18,42.52
5,0.03,0.98,0.18,45.36
5,-0.10,0.98,0.18,44.60
5,-0.13,0.97,0.12,42.25
5,-0.13,1.03,0.09,42.84
5,-0.06,1.03,0.09,43.14
5,0.04,1.04,0.08,43.14
5,0.04,0.98,0.16,47.83
5,0.04,0.98,0.13,46.05
5,-0.08,0.97,0.19,46.05
5,-0.13,0.98,0.13,45.25
5,-0.13,0.98,0.10,37.26
5,-0.08,1.01,0.10,36.78
5,0.02,1.05,0.07,41.48
5,0.02,1.00,0.14,44.01
5,0.05,1.00,0.14,43.95
5,-0.04,0.96,0.19,43.95
5,-0.01,0.98,0.14,46.22
5,-0.13,0.98,0.16,44.36
5,-0.10,0.99,0.10,44.36
5,-0.02,1.05,0.08,46.72
5,-0.02,1.05,0.12,45.62
5,0.08,1.02,0.12,45.62
5,-0.02,0.96,0.19,47.84
5,-0.02,0.99,0.16,45.42
5,-0.12,0.99,0.16,46.11
5,-0.12,0.98,0.11,42.98
5,-0.12,1.04,0.07,51.99
5,-0.03,1.04,0.10,49.24
5,0.07,1.03,0.10,49.24
5,0.07,0.97,0.17,41.59
5,0.01,0.97,0.18,47.97
5,-0.11,0.98,0.18,47.97
5,-0.14,0.97,0.11,47.71
5,-0.14,0.96,0.08,40.39
5,-0.07,1.02,0.08,40.37
5,0.06,1.05,0.10,38.02
5,0.06,0.98,0.16,41.19
5,0.02,0.98,0.16,37.58
5,-0.07,0.98,0.19,37.58
5,-0.07,0.97,0.13,51.34
5,-0.13,0.97,0.15,43.21
5,-0.08,1.00,0.08,43.21
5,0.03,1.06,0.10,43.41
5,0.03,1.06,0.14,48.06
5,0.04,1.00,0.14,48.39
5,-0.04,0.97,0.19,35.86
5,-0.04,0.98,0.14,43.15
5,-0.14,0.98,0.14,54.32
5,-0.10,0.98,0.10,54.32
5,-0.10,1.06,0.09,42.95
5,0.01,1.06,0.12,43.01
5,0.05,1.00,0.12,43.01
5,0.05,0.97,0.18,47.69
5,-0.01,0.97,0.15,48.61
5,-0.12,0.99,0.15,48.61
5,-0.12,0.97,0.11,42.87
5,-0.12,0.99,0.08,44.60
5,-0.03,1.05,0.08,44.75
5,0.06,1.02,0.10,43.18
5,0.06,0.98,0.18,49.26
5,0.01,0.98,0.18,44.71
5,-0.11,0.98,0.18,44.71
5,-0.07,0.97,0.12,44.72
5,-0.13,0.97,0.08,42.15
5,-0.05,1.04,0.08,42.15
5,0.05,1.03,0.10,52.67
5,0.05,1.03,0.16,47.80
5,0.03,0.97,0.16,47.75
5,-0.08,0.98,0.18,43.05
5,-0.08,0.97,0.13,43.97
5,-0.14,0.97,0.13,40.12
5,-0.07,1.02,0.08,40.12
5,-0.10,1.04,0.08,37.69
5,0.03,1.04,0.09,42.54
5,0.05,0.99,0.15,42.54
5,-0.05,0.97,0.19,48.74
5,-0.05,0.97,0.14,46.52
5,-0.14,0.97,0.14,46.52
5,-0.10,1.00,0.11,41.33
5,-0.10,0.98,0.08,43.46
5,-0.00,1.04,0.08,43.68
5,0.06,1.00,0.13,41.32
5,0.06,0.98,0.19,42.90
5,-0.03,0.98,0.19,39.64
5,-0.14,0.99,0.16,39.64
5,-0.17,0.98,0.10,53.42
5,-0.11,0.98,0.07,45.54
5,-0.02,1.05,0.07,45.54
5,0.07,1.02,0.11,43.35
5,0.07,1.03,0.17,46.13
5,-0.00,0.97,0.17,45.49
5,-0.12,0.99,0.17,50.19
5,-0.12,0.97,0.12,48.09
5,-0.11,0.97,0.12,50.58
5,-0.05,1.03,0.07,50.58
5,-0.01,1.03,0.10,47.86
5,0.06,1.03,0.10,51.10
5,0.02,0.98,0.16,51.10
5,-0.09,0.98,0.18,50.38
5,-0.09,0.98,0.13,48.27
5,-0.12,0.99,0.13,48.04
5,-0.08,1.01,0.08,46.48
5,-0.08,1.05,0.09,48.98
5,0.04,1.05,0.09,43.95
5,0.03,0.98,0.14,43.95
5,0.03,0.97,0.19,48.94
5,-0.06,0.97,0.19,44.81
5,-0.13,0.99,0.13,44.81
5,-0.16,1.00,0.09,44.38
5,-0.10,1.00,0.09,48.27
5,0.02,1.05,0.09,48.27
5,0.06,1.00,0.13,42.50
5,0.06,1.03,0.19,51.51
5,-0.03,0.97,0.19,50.94
5,-0.14,1.00,0.14,46.24
5,-0.14,0.98,0.10,43.60
5,-0.11,0.98,0.10,48.40
5,-0.01,1.05,0.08,48.40
5,-0.06,1.02,0.12,51.61
5,0.06,1.02,0.12,42.25
5,-0.00,0.96,0.19,42.25
5,-0.12,1.00,0.16,46.07
5,-0.12,1.00,0.11,40.69
5,-0.13,0.97,0.11,40.81
5,-0.03,1.05,0.08,52.56
5,-0.03,1.03,0.10,48.85
5,0.05,1.03,0.10,44.50
5,0.01,0.96,0.17,44.50
5,0.03,0.99,0.17,43.71
5,-0.09,0.99,0.18,39.34
6,-0.14,1.01,0.08,47.46
6,-0.07,1.01,0.08,45.45
6,0.01,1.05,0.09,45.45
6,0.04,0.99,0.14,40.78
6,0.04,0.99,0.13,41.33
6,-0.05,0.97,0.19,41.33
6,-0.14,0.98,0.14,39.60
6,-0.14,0.98,0.10,41.85
6,-0.10,0.99,0.10,42.18
6,-0.01,1.06,0.07,46.09
6,-0.01,1.01,0.11,41.67
6,0.06,1.01,0.11,45.62
6,-0.02,0.97,0.18,45.62
6,-0.06,0.98,0.15,43.79
6,-0.12,0.98,0.18,48.44
6,-0.12,0.97,0.12,48.44
6,-0.05,1.05,0.08,47.89
6,-0.05,1.05,0.10,48.77
6,0.06,1.03,0.10,48.77
6,0.02,0.98,0.18,43.92
6,0.02,0.98,0.17,45.28
6,-0.11,0.98,0.17,45.02
6,-0.13,0.97,0.13,55.21
6,-0.13,1.03,0.09,44.82
6,-0.06,1.03,0.09,44.35
6,0.05,1.04,0.09,44.35
6,0.04,0.99,0.15,50.99
6,0.04,0.99,0.18,44.79
6,-0.08,0.97,0.18,44.79
6,-0.12,0.98,0.14,41.21
6,-0.12,0.94,0.09,50.84
6,-0.08,1.00,0.09,50.62
6,0.03,1.05,0.09,52.18
6,0.03,0.99,0.14,48.88
6,0.05,0.99,0.14,46.49
6,-0.05,0.97,0.19,46.49
6,-0.06,0.99,0.14,45.76
6,-0.12,0.99,0.16,45.15
6,-0.11,0.99,0.09,45.15
6,0.01,1.05,0.08,42.28
6,0.01,1.05,0.13,47.06
6,0.06,1.01,0.13,47.45
6,-0.02,0.97,0.18,50.58
6,-0.02,0.99,0.16,45.60
6,-0.11,0.99,0.16,41.59
6,-0.12,0.98,0.11,41.59
6,-0.09,1.05,0.08,37.28
6,-0.03,1.05,0.11,51.76
6,0.06,1.02,0.11,51.76
6,0.00,0.97,0.18,49.24
6,0.00,0.97,0.17,37.39
6,-0.10,0.99,0.17,37.39
6,-0.13,0.97,0.13,46.32
6,-0.13,0.97,0.09,39.92
6,-0.04,1.03,0.09,46.42
6,0.04,1.03,0.10,46.42
6,0.04,0.98,0.15,43.43
6,0.02,0.98,0.18,44.26
6,-0.08,0.98,0.18,44.26
6,-0.07,0.97,0.12,39.64
6,-0.14,0.97,0.10,42.97
6,-0.08,1.01,0.10,42.97
6,0.04,1.05,0.08,39.53
6,0.04,1.05,0.14,43.72
6,0.05,0.98,0.14,43.62
6,-0.05,0.97,0.19,41.27
6,-0.05,0.98,0.14,49.42
6,-0.14,0.98,0.14,49.16
6,-0.10,1.00,0.09,49.16
6,-0.12,1.05,0.08,39.00
6,0.01,1.05,0.12,40.46
6,0.05,1.00,0.12,40.46
6,-0.03,0.96,0.18,50.45
6,-0.03,0.96,0.14,41.32
6,-0.13,0.98,0.14,41.09
6,-0.10,0.98,0.11,41.88
6,-0.10,0.99,0.08,42.56
6,-0.01,1.05,0.08,43.64
6,0.06,1.01,0.11,43.64
6,0.06,0.97,0.17,44.36
6,0.01,0.97,0.17,40.53
6,-0.12,0.99,0.17,40.53
6,-0.12,0.97,0.11,44.20
6,-0.12,0.97,0.08,51.49
6,-0.04,1.04,0.08,51.49
6,0.05,1.02,0.10,44.99
6,0.05,1.04,0.17,39.60
6,0.02,0.98,0.17,39.18
6,-0.09,0.99,0.17,36.83
6,-0.09,0.98,0.13,39.04
6,-0.13,0.98,0.13,43.68
6,-0.07,1.03,0.09,43.68
6,-0.09,1.04,0.08,45.45
6,0.03,1.04,0.08,41.77
6,0.04,0.99,0.15,41.77
6,-0.07,0.98,0.18,46.51
6,-0.07,0.98,0.13,48.19
6,-0.13,0.98,0.13,48.08
6,-0.09,1.00,0.09,43.38
6,-0.09,1.04,0.07,38.45
6,0.01,1.04,0.07,44.29
6,0.05,1.00,0.14,44.29
6,0.03,0.96,0.18,40.30
6,-0.04,0.96,0.14,43.42
6,-0.12,0.99,0.14,43.42
6,-0.11,0.99,0.10,45.46
6,-0.11,0.99,0.08,45.35
6,-0.01,1.05,0.08,45.35
6,0.06,1.02,0.12,43.15
6,0.06,1.03,0.18,47.20
6,-0.00,0.97,0.18,40.80
6,-0.11,0.99,0.17,40.80
6,-0.11,0.98,0.11,42.88
6,-0.12,0.98,0.08,41.45
6,-0.04,1.04,0.08,41.45
6,-0.06,1.03,0.11,46.66
6,0.06,1.03,0.18,42.06
6,0.01,0.98,0.18,42.06
6,-0.10,0.99,0.17,43.44
6,-0.10,0.98,0.12,45.20
6,-0.13,0.98,0.12,45.35
6,-0.06,1.02,0.08,42.22
6,-0.06,1.04,0.09,48.48
6,0.05,1.04,0.09,48.78
6,0.03,0.98,0.16,48.78
6,0.05,0.97,0.18,44.86
6,-0.07,0.97,0.14,43.23
6,-0.14,0.98,0.14,43.23
6,-0.09,1.00,0.08,42.74
6,-0.09,1.00,0.09,40.71
6,0.04,1.05,0.09,40.99
6,0.04,0.99,0.12,43.34
6,0.04,0.98,0.19,40.54
6,-0.04,0.98,0.19,42.79
6,-0.13,0.99,0.14,42.79
6,-0.13,0.99,0.10,41.03
6,-0.11,0.99,0.09,45.76
6,-0.00,1.05,0.09,45.76
6,-0.01,1.00,0.11,43.51
6,0.05,1.00,0.19,49.38
6,-0.00,0.97,0.19,49.38
6,-0.11,0.99,0.16,41.11
6,-0.11,0.97,0.11,44.24
6,-0.12,0.97,0.11,44.09
6,-0.03,1.06,0.08,41.74
6,-0.03,1.01,0.10,38.91
6,0.05,1.01,0.10,50.94
6,0.02,0.98,0.16,50.94
6,0.02,0.99,0.17,39.55
6,-0.10,0.99,0.13,49.73
6,-0.12,0.96,0.13,49.73
6,-0.05,1.03,0.09,40.06
6,-0.05,1.03,0.08,44.46
6,0.04,1.03,0.08,43.98
6,0.04,0.99,0.17,43.98
6,0.04,0.97,0.18,39.92
6,-0.08,0.97,0.18,45.55
6,-0.13,0.98,0.13,45.55
6,-0.14,1.01,0.09,50.12
6,-0.07,1.01,0.09,40.24
6,0.01,1.04,0.09,40.24
6,0.05,0.99,0.14,50.40
6,0.05,0.99,0.18,43.80
6,-0.05,0.98,0.18,43.80
6,-0.12,0.97,0.14,42.72
6,-0.12,0.99,0.09,43.97
6,-0.09,0.99,0.09,45.63
6,-0.01,1.04,0.07,45.63
6,-0.01,1.01,0.12,46.75
6,0.06,1.01,0.11,40.89
6,-0.02,0.98,0.17,40.89
6,-0.05,0.99,0.15,43.69
6,-0.11,0.99,0.11,43.00
6,-0.11,0.98,0.11,43.00
6,-0.04,1.04,0.07,48.21
6,-0.04,1.02,0.11,46.14
6,0.06,1.02,0.11,45.90
6,-0.00,0.97,0.17,48.25
6,-0.00,0.99,0.17,41.92
6,-0.10,0.99,0.17,37.34
6,-0.12,0.97,0.13,37.34
6,-0.06,1.03,0.08,39.65
6,-0.06,1.03,0.10,48.07
6,0.05,1.04,0.10,48.07
6,0.03,0.98,0.15,46.23
6,0.03,0.98,0.17,43.47
6,-0.08,0.98,0.17,43.04
6,-0.13,0.97,0.12,44.61
6,-0.13,0.95,0.08,48.30
6,-0.08,1.02,0.08,42.34
6,0.04,1.05,0.09,42.34
6,0.04,0.99,0.15,46.34
6,0.04,0.99,0.13,44.79
6,-0.05,0.98,0.19,44.79
6,-0.06,0.98,0.14,40.47
6,-0.12,0.98,0.09,46.55
6,-0.10,0.99,0.09,46.55
6,0.01,1.05,0.09,42.39
6,0.01,1.01,0.12,39.20
6,0.05,1.01,0.12,39.16
6,-0.03,0.97,0.19,39.16
6,-0.03,0.99,0.15,46.80
6,-0.13,0.99,0.15,38.83
6,-0.12,0.98,0.11,38.83
6,-0.08,1.04,0.09,46.62
6,-0.02,1.04,0.11,43.38
6,0.05,1.00,0.11,43.38
6,-0.00,0.97,0.18,45.19
6,-0.00,1.00,0.17,43.45
6,-0.10,1.00,0.17,43.27
6,-0.12,0.97,0.11,50.32
6,-0.12,1.04,0.08,48.60
6,-0.05,1.04,0.08,43.63
6,0.05,1.03,0.11,43.63
6,0.01,0.97,0.18,39.87
6,0.01,0.97,0.18,36.66
6,-0.09,0.99,0.18,36.66
6,-0.13,0.97,0.12,44.42
6,-0.13,0.97,0.09,48.70
6,-0.07,1.03,0.09,48.70
6,0.03,1.03,0.09,44.88
6,0.03,1.05,0.15,35.95
6,0.05,0.99,0.15,43.70
6,-0.06,0.97,0.19,43.70
6,-0.06,0.98,0.13,46.06
6,-0.13,0.98,0.16,49.05
6,-0.09,1.01,0.09,49.05
6,-0.12,1.04,0.09,38.74
6,0.01,1.04,0.13,52.46
6,0.04,0.99,0.13,52.46
6,-0.03,0.97,0.19,49.68
6,-0.03,0.99,0.15,44.92
6,-0.13,0.99,0.15,44.88
7,-0.11,0.99,0.06,47.29
7,-0.04,1.04,0.06,47.63
7,0.06,1.02,0.10,46.07
7,0.06,0.98,0.17,46.30
7,0.02,0.98,0.17,44.01
7,-0.10,0.99,0.17,44.01
7,-0.06,0.98,0.13,44.71
7,-0.13,0.98,0.16,36.44
7,-0.06,1.02,0.09,36.44
7,0.04,1.03,0.10,52.09
7,0.04,1.03,0.15,43.49
7,0.04,0.99,0.15,43.04
7,-0.07,0.97,0.18,43.82
7,-0.07,0.98,0.13,45.06
7,-0.12,0.98,0.13,45.96
7,-0.09,1.01,0.09,45.96
7,-0.09,1.05,0.08,44.89
7,0.03,1.05,0.08,43.17
7,0.04,0.99,0.14,43.17
7,0.02,0.97,0.18,46.84
7,-0.04,0.97,0.15,44.61
7,-0.13,0.99,0.15,44.61
7,-0.11,0.99,0.10,45.67
7,-0.11,0.99,0.07,46.44
7,0.00,1.05,0.07,46.51
7,0.05,1.01,0.12,43.38
7,0.05,0.97,0.18,47.63
7,-0.01,0.97,0.18,45.08
7,-0.12,0.99,0.16,45.08
7,-0.07,0.98,0.11,47.62
7,-0.13,0.98,0.07,48.19
7,-0.02,1.05,0.07,48.19
7,0.05,1.01,0.11,44.93
7,0.05,1.01,0.17,50.81
7,0.01,0.96,0.17,50.09
7,-0.10,0.99,0.17,39.12
7,-0.10,0.97,0.12,39.99
7,-0.14,0.97,0.12,42.54
7,-0.05,1.03,0.08,42.54
7,-0.01,1.03,0.10,47.23
7,0.05,1.03,0.10,42.79
7,0.03,0.98,0.16,42.79
7,-0.08,0.99,0.18,47.40
7,-0.08,0.99,0.13,48.64
7,-0.13,0.98,0.13,48.64
7,-0.08,1.02,0.09,49.38
7,-0.08,1.05,0.09,43.89
7,0.03,1.05,0.09,44.40
7,0.05,0.99,0.15,44.40
7,0.05,0.98,0.18,37.17
7,-0.05,0.98,0.15,49.21
7,-0.12,0.99,0.15,49.21
7,-0.09,1.00,0.09,54.89
7,-0.09,1.00,0.09,44.74
7,0.00,1.05,0.09,44.74
7,0.05,1.01,0.12,42.31
7,0.05,1.03,0.18,41.20
7,-0.02,0.96,0.18,40.74
7,-0.13,0.98,0.15,39.18
7,-0.13,0.98,0.10,44.66
7,-0.11,0.98,0.10,48.82
7,-0.03,1.04,0.09,48.82
7,-0.01,1.02,0.11,46.42
7,0.05,1.02,0.11,41.60
7,0.01,0.97,0.18,41.60
7,-0.11,0.99,0.16,42.89
7,-0.11,0.99,0.11,51.02
7,-0.11,0.98,0.11,51.42
7,-0.06,1.03,0.09,41.23
7,-0.06,1.02,0.11,45.77
7,0.05,1.02,0.11,41.48
7,0.02,0.98,0.17,41.48
7,0.02,0.98,0.18,44.84
7,-0.08,0.98,0.13,44.44
7,-0.12,0.98,0.13,44.44
7,-0.08,1.01,0.09,46.76
7,-0.08,1.01,0.09,42.81
7,0.02,1.03,0.09,42.81
7,0.04,0.99,0.15,43.02
7,0.04,0.97,0.18,39.79
7,-0.06,0.97,0.18,39.24
7,-0.13,0.98,0.14,46.29
7,-0.13,1.00,0.10,44.48
7,-0.10,1.00,0.10,42.75
7,0.01,1.04,0.08,42.75
7,0.05,1.00,0.12,44.50
7,0.05,1.00,0.11,43.81
7,-0.03,0.97,0.17,43.81
7,-0.12,0.99,0.15,39.07
7,-0.12,0.99,0.12,40.90
7,-0.12,0.98,0.12,40.95
7,-0.03,1.04,0.09,48.00
7,-0.03,1.02,0.12,39.76
7,0.05,1.02,0.12,42.55
7,-0.01,0.97,0.18,42.55
7,-0.04,0.99,0.16,42.40
7,-0.10,0.99,0.18,44.53
7,-0.12,0.98,0.12,44.53
7,-0.05,1.03,0.09,40.01
7,-0.05,1.03,0.11,46.63
7,0.05,1.03,0.11,46.63
7,0.02,0.97,0.16,45.02
7,0.02,0.98,0.18,36.46
7,-0.09,0.98,0.18,36.11
7,-0.12,0.97,0.13,41.59
7,-0.12,1.02,0.09,42.40
7,-0.07,1.02,0.11,43.51
7,0.04,1.04,0.11,43.51
7,0.04,0.98,0.15,40.52
7,0.04,0.98,0.17,38.82
7,-0.06,0.98,0.17,38.82
7,-0.13,0.98,0.14,46.32
7,-0.13,0.94,0.10,40.52
7,-0.09,1.00,0.10,40.16
7,0.01,1.05,0.09,44.86
7,0.01,0.99,0.13,48.97
7,0.04,0.99,0.13,47.15
7,-0.03,0.98,0.17,47.15
7,-0.00,0.99,0.14,46.09
7,-0.13,0.99,0.16,44.77
7,-0.11,0.99,0.10,44.77
7,-0.02,1.04,0.09,42.43
7,-0.02,1.04,0.12,43.12
7,0.05,1.01,0.12,43.46
7,-0.01,0.97,0.17,37.20
7,-0.01,0.99,0.15,41.17
7,-0.10,0.99,0.15,42.75
7,-0.12,0.98,0.12,42.75
7,-0.12,1.03,0.09,42.58
7,-0.05,1.03,0.12,44.78
7,0.05,1.02,0.12,44.78
7,0.02,0.98,0.17,45.05
7,0.02,0.98,0.17,44.10
7,-0.10,0.99,0.17,44.10
7,-0.12,0.97,0.12,44.27
7,-0.12,0.97,0.09,40.04
7,-0.07,1.03,0.09,40.05
7,0.03,1.03,0.11,45.53
7,0.03,0.99,0.16,49.37
7,0.03,0.99,0.16,46.82
7,-0.07,0.98,0.18,46.82
7,-0.12,0.98,0.14,44.66
7,-0.12,0.98,0.16,42.02
7,-0.09,1.01,0.10,42.02
7,0.01,1.04,0.09,43.41
7,0.01,1.04,0.14,41.52
7,0.05,1.00,0.14,41.58
7,-0.04,0.97,0.17,50.98
7,-0.04,0.99,0.14,42.07
7,-0.12,0.99,0.14,45.55
7,-0.09,1.00,0.11,45.55
7,-0.08,1.04,0.09,44.42
7,-0.01,1.04,0.07,45.80
7,0.06,1.01,0.13,45.80
7,-0.03,0.97,0.18,49.59
7,-0.03,0.97,0.16,47.66
7,-0.11,0.99,0.16,47.66
7,-0.12,0.98,0.11,52.77
7,-0.12,0.98,0.07,39.92
7,-0.03,1.04,0.07,40.36
7,0.06,1.02,0.11,45.06
7,0.06,0.97,0.17,48.85
7,-0.00,0.97,0.16,38.97
7,-0.09,0.99,0.16,38.97
7,-0.12,0.98,0.11,52.34
7,-0.12,0.98,0.08,49.74
7,-0.06,1.02,0.08,49.74
7,0.05,1.03,0.11,48.77
7,0.05,1.04,0.17,42.55
7,0.01,0.98,0.17,42.36
7,-0.07,0.98,0.18,43.14
7,-0.07,0.98,0.14,37.61
7,-0.13,0.98,0.14,51.12
7,-0.08,1.02,0.09,51.12
7,-0.10,1.04,0.09,44.63
7,0.03,1.04,0.09,42.08
7,0.04,0.99,0.15,42.08
7,-0.05,0.98,0.18,45.04
7,-0.05,0.98,0.14,42.70
7,-0.13,0.98,0.14,42.67
7,-0.10,1.00,0.09,46.59
7,-0.10,0.98,0.08,42.13
7,-0.01,1.05,0.08,51.50
7,0.04,1.00,0.12,51.50
7,0.04,0.97,0.18,49.15
7,-0.02,0.97,0.16,52.63
7,-0.12,0.99,0.16,52.63
7,-0.11,0.99,0.11,42.06
7,-0.11,0.99,0.08,41.87
7,-0.02,1.05,0.08,41.87
7,0.05,1.00,0.11,49.53
7,0.05,1.03,0.18,42.38
7,0.00,0.97,0.18,42.55
7,-0.10,0.98,0.16,44.11
7,-0.10,0.98,0.11,39.95
7,-0.12,0.98,0.11,44.64
7,-0.04,1.04,0.08,44.64
7,-0.03,1.03,0.10,40.47
7,0.03,1.03,0.11,47.23
7,0.03,0.99,0.17,47.23
7,-0.09,0.99,0.16,42.39
7,-0.09,0.99,0.13,40.73
7,-0.13,0.97,0.13,40.85
7,-0.07,1.02,0.09,44.76
7,-0.07,1.03,0.10,50.51
7,0.02,1.03,0.10,46.88
7,0.03,0.99,0.16,46.88
7,0.01,0.97,0.19,42.67
7,-0.05,0.97,0.14,48.73
7,-0.13,0.98,0.14,48.73
7,-0.08,1.01,0.09,41.06
7,-0.08,1.01,0.09,50.91
7,0.01,1.03,0.09,50.91
7,0.06,1.00,0.14,47.10
7,0.06,1.04,0.18,48.01
7,-0.04,0.98,0.18,48.41
7,-0.12,0.99,0.15,46.06
7,-0.12,0.99,0.11,49.27
7,-0.11,0.99,0.11,45.11
7,-0.02,1.03,0.10,45.11
7,-0.01,1.01,0.13,39.64
7,0.05,1.01,0.17,42.69
7,-0.00,0.97,0.17,42.69
7,-0.11,0.98,0.15,40.81
7,-0.11,0.98,0.10,38.81
7,-0.12,0.98,0.10,38.49
7,-0.05,1.03,0.09,38.49
7,-0.05,1.02,0.11,43.26
7,0.05,1.02,0.11,43.13
7,0.02,0.98,0.17,43.13
7,0.03,0.97,0.17,45.36
7,-0.09,0.97,0.13,43.24
7,-0.12,0.97,0.13,43.24
8,-0.10,1.00,0.09,41.34
8,0.02,1.04,0.09,41.34
8,0.05,1.00,0.13,44.79
8,0.05,1.00,0.17,45.22
8,-0.04,0.97,0.17,45.22
8,-0.13,0.99,0.15,39.09
8,-0.13,0.99,0.09,43.13
8,-0.11,0.99,0.09,43.42
8,-0.01,1.04,0.09,41.86
8,-0.01,1.00,0.12,45.62
8,0.04,1.00,0.12,42.81
8,-0.01,0.97,0.18,42.81
8,-0.05,0.98,0.16,46.38
8,-0.11,0.98,0.11,45.98
8,-0.13,0.98,0.11,45.98
8,-0.04,1.05,0.09,47.20
8,-0.04,1.02,0.11,46.83
8,0.04,1.02,0.11,46.80
8,0.02,0.97,0.17,46.02
8,0.02,0.98,0.16,45.13
8,-0.08,0.98,0.16,47.09
8,-0.13,0.98,0.12,47.09
8,-0.18,1.03,0.09,45.17
8,-0.06,1.03,0.10,43.16
8,0.03,1.02,0.10,43.16
8,0.03,0.98,0.16,44.79
8,0.03,0.98,0.17,42.76
8,-0.08,0.99,0.17,42.25
8,-0.13,0.98,0.13,46.95
8,-0.13,0.94,0.09,47.29
8,-0.08,1.00,0.09,42.16
8,0.02,1.04,0.09,42.16
8,0.02,1.00,0.13,45.64
8,0.04,1.00,0.18,45.39
8,-0.04,0.99,0.18,45.39
8,-0.12,0.99,0.15,39.40
8,-0.12,0.99,0.10,43.06
8,-0.09,1.00,0.10,43.06
8,-0.01,1.04,0.09,40.63
8,-0.01,1.00,0.12,38.84
8,0.06,1.00,0.12,38.75
8,-0.02,0.98,0.18,45.02
8,-0.02,0.99,0.15,42.01
8,-0.11,0.99,0.15,40.83
8,-0.11,0.99,0.11,40.83
8,-0.10,1.04,0.08,39.74
8,-0.04,1.04,0.11,48.38
8,0.05,1.01,0.11,48.38
8,0.01,0.97,0.18,40.03
8,0.01,0.98,0.16,41.69
8,-0.10,0.98,0.16,41.66
8,-0.12,0.98,0.12,41.66
8,-0.12,1.02,0.09,48.60
8,-0.06,1.02,0.09,45.09
8,0.04,1.03,0.11,45.09
8,0.03,0.99,0.17,43.89
8,0.03,0.99,0.16,51.14
8,-0.08,0.98,0.16,51.14
8,-0.12,0.98,0.14,45.60
8,-0.12,0.98,0.08,38.03
8,-0.08,1.02,0.08,38.00
8,0.03,1.03,0.09,42.70
8,0.03,1.05,0.15,44.59
8,0.04,0.99,0.15,45.90
8,-0.05,0.97,0.17,45.90
8,-0.05,0.99,0.14,44.15
8,-0.11,0.99,0.16,42.05
8,-0.10,0.99,0.10,42.05
8,-0.12,1.04,0.09,47.15
8,0.00,1.04,0.13,45.05
8,0.05,1.00,0.13,45.05
8,-0.03,0.97,0.18,43.15
8,-0.03,0.99,0.14,44.74
8,-0.11,0.99,0.14,44.97
8,-0.12,1.00,0.10,46.54
8,-0.12,1.03,0.08,44.18
8,-0.02,1.03,0.08,42.57
8,0.05,1.01,0.14,42.57
8,0.00,0.97,0.18,44.74
8,0.00,0.97,0.15,40.77
8,-0.09,1.00,0.15,40.77
8,-0.11,0.98,0.11,47.33
8,-0.11,0.98,0.09,47.44
8,-0.05,1.03,0.09,47.29
8,0.04,1.02,0.11,45.72
8,0.04,1.04,0.16,49.21
8,0.02,0.98,0.16,48.26
8,-0.08,0.98,0.17,48.26
8,-0.08,0.98,0.12,52.52
8,-0.12,0.98,0.08,51.53
8,-0.07,1.03,0.08,51.53
8,-0.10,1.03,0.09,49.94
8,0.03,1.03,0.14,41.32
8,0.03,0.99,0.14,41.32
8,-0.05,0.98,0.18,44.15
8,-0.05,0.99,0.14,44.92
8,-0.13,0.99,0.14,45.09
8,-0.09,1.00,0.10,45.87
8,-0.09,1.04,0.11,44.34
8,0.01,1.04,0.11,39.48
8,0.04,1.00,0.13,39.48
8,0.03,0.97,0.17,45.78
8,-0.04,0.97,0.15,45.52
8,-0.12,0.98,0.15,45.52
8,-0.10,0.99,0.10,43.20
8,-0.10,0.98,0.08,50.35
8,-0.02,1.04,0.08,50.80
8,0.04,1.00,0.11,46.10
8,0.04,0.98,0.17,39.42
8,-0.01,0.98,0.17,42.71
8,-0.11,0.98,0.16,42.71
8,-0.12,0.98,0.11,48.58
8,-0.12,0.98,0.09,46.96
8,-0.04,1.04,0.09,46.96
8,0.04,1.02,0.12,42.64
8,0.04,1.02,0.17,48.85
8,0.00,0.98,0.17,48.53
8,-0.10,0.99,0.17,44.61
8,-0.10,0.99,0.12,44.28
8,-0.12,0.99,0.12,41.81
8,-0.07,1.02,0.08,41.81
8,-0.07,1.02,0.11,45.81
8,0.04,1.02,0.09,39.76
8,0.04,0.99,0.15,39.76
8,-0.06,0.98,0.17,43.99
8,-0.06,0.98,0.14,36.83
8,-0.13,0.98,0.14,36.83
8,-0.08,1.01,0.09,36.86
8,-0.08,1.03,0.09,49.05
8,0.01,1.03,0.09,48.67
8,0.06,1.01,0.14,48.67
8,0.06,0.97,0.17,38.72
8,-0.05,0.97,0.14,48.35
8,-0.12,0.99,0.14,48.35
8,-0.11,1.00,0.10,46.04
8,-0.11,1.00,0.09,41.09
8,-0.01,1.04,0.09,41.09
8,0.05,1.01,0.13,45.09
8,0.05,1.04,0.18,43.49
8,-0.02,0.98,0.18,43.10
8,-0.11,0.98,0.15,47.80
8,-0.11,0.98,0.10,51.26
8,-0.12,0.98,0.10,47.28
8,-0.05,1.03,0.08,47.28
8,-0.01,1.03,0.11,52.71
8,0.05,1.03,0.10,48.75
8,0.01,0.98,0.16,48.75
8,-0.09,0.99,0.16,38.79
8,-0.09,0.98,0.12,45.88
8,-0.12,0.98,0.12,45.51
8,-0.06,1.03,0.09,47.86
8,-0.06,1.03,0.10,41.92
8,0.05,1.03,0.10,46.33
8,0.02,0.98,0.15,46.33
8,0.06,0.98,0.17,54.09
8,-0.06,0.98,0.13,45.95
8,-0.13,0.98,0.13,45.95
8,-0.09,1.02,0.10,44.27
8,-0.09,1.02,0.09,48.18
8,0.02,1.03,0.09,47.84
8,0.04,0.98,0.14,45.49
8,0.04,0.98,0.17,44.18
8,-0.04,0.98,0.17,42.34
8,-0.12,0.98,0.13,42.34
8,-0.12,0.99,0.09,47.47
8,-0.09,0.99,0.09,49.02
8,-0.00,1.04,0.09,49.02
8,0.05,1.00,0.13,47.72
8,0.05,1.00,0.17,40.04
8,-0.02,0.97,0.17,40.04
8,-0.12,0.99,0.15,41.67
8,-0.12,0.99,0.11,41.57
8,-0.11,0.99,0.11,42.03
8,-0.03,1.05,0.10,35.76
8,-0.03,1.01,0.11,43.90
8,0.05,1.01,0.12,40.66
8,0.01,0.98,0.18,40.66
8,0.03,0.98,0.16,46.75
8,-0.10,0.98,0.11,48.27
8,-0.12,0.99,0.11,48.27
8,-0.06,1.03,0.09,44.03
8,-0.06,1.02,0.11,43.73
8,0.04,1.02,0.11,43.48
8,0.03,0.98,0.16,41.91
8,0.03,0.98,0.17,37.27
8,-0.08,0.98,0.17,40.65
8,-0.12,0.98,0.13,40.65
8,-0.07,1.02,0.09,46.02
8,-0.07,1.02,0.10,47.12
8,0.02,1.03,0.10,47.12
8,0.04,1.00,0.16,49.07
8,0.04,1.00,0.18,47.30
8,-0.05,0.98,0.18,47.54
8,-0.12,0.98,0.14,45.19
8,-0.12,1.00,0.09,45.09
8,-0.09,1.00,0.09,48.92
8,0.00,1.04,0.09,48.92
8,0.05,1.01,0.13,46.55
8,0.05,1.01,0.17,40.10
8,-0.03,0.97,0.17,40.10
8,-0.12,0.98,0.15,45.19
8,-0.12,0.98,0.10,39.27
8,-0.11,0.99,0.10,39.53
8,-0.03,1.02,0.09,45.01
8,-0.03,1.02,0.13,36.95
8,0.05,1.02,0.13,39.01
8,-0.00,0.98,0.17,39.01
8,-0.00,0.98,0.15,46.51
8,-0.10,0.98,0.18,35.35
8,-0.12,0.99,0.11,35.35
8,-0.11,1.04,0.08,38.08
8,-0.04,1.04,0.11,43.21
8,0.04,1.03,0.11,43.21
8,0.02,0.99,0.16,48.10
8,0.02,0.98,0.17,39.56
8,-0.08,0.98,0.17,39.88
8,-0.12,0.99,0.13,41.44
8,-0.12,1.01,0.09,40.26
8,-0.08,1.01,0.09,44.79
8,0.03,1.03,0.11,44.79
8,0.04,0.98,0.15,41.62
8,0.04,0.98,0.17,47.76
8,-0.05,0.98,0.17,47.76
8,-0.13,0.98,0.13,39.62
8,-0.13,0.94,0.10,45.98
8,-0.09,1.00,0.10,46.02
8,0.02,1.04,0.09,35.05
8,0.02,1.00,0.13,42.98
8,0.05,1.00,0.13,41.63
8,-0.04,0.98,0.18,41.63
8,-0.05,0.98,0.14,42.63
8,-0.12,0.98,0.16,39.43
9,-0.11,1.04,0.09,46.70
9,-0.05,1.04,0.11,41.82
9,0.04,1.02,0.11,41.82
9,0.02,0.98,0.17,42.75
9,0.02,0.98,0.16,42.56
9,-0.08,0.99,0.16,42.98
9,-0.12,0.99,0.12,46.11
9,-0.12,0.96,0.10,47.70
9,-0.07,1.02,0.10,39.10
9,0.03,1.03,0.10,39.10
9,0.03,0.98,0.16,39.03
9,0.03,0.98,0.16,44.85
9,-0.07,0.98,0.16,44.85
9,-0.12,0.99,0.13,44.34
9,-0.12,0.99,0.09,45.00
9,-0.08,1.01,0.09,45.00
9,0.01,1.03,0.10,41.36
9,0.01,1.00,0.15,43.43
9,0.04,1.00,0.15,41.36
9,-0.03,0.98,0.18,41.36
9,-0.03,0.98,0.13,53.81
9,-0.12,0.98,0.18,44.59
9,-0.09,1.00,0.12,44.59
9,-0.08,1.04,0.09,44.16
9,-0.02,1.04,0.13,42.80
9,0.05,1.00,0.13,42.80
9,-0.01,0.97,0.17,40.11
9,-0.01,0.99,0.15,43.37
9,-0.11,0.99,0.15,43.74
9,-0.11,0.99,0.11,39.04
9,-0.11,1.03,0.09,42.55
9,-0.05,1.03,0.09,43.36
9,0.04,1.01,0.12,43.36
9,0.01,0.98,0.16,46.96
9,0.01,0.98,0.16,46.87
9,-0.09,0.99,0.16,46.87
9,-0.12,0.98,0.12,45.95
9,-0.12,0.96,0.08,49.05
9,-0.06,1.03,0.08,48.62
9,0.04,1.03,0.11,45.48
9,0.04,0.98,0.15,44.18
9,0.02,0.98,0.15,39.84
9,-0.07,0.98,0.16,39.84
9,-0.12,0.99,0.13,39.14
9,-0.12,0.99,0.15,43.07
9,-0.09,1.01,0.09,43.07
9,0.01,1.03,0.10,50.47
9,0.01,1.03,0.15,41.23
9,0.04,0.99,0.15,41.14
9,-0.05,0.98,0.18,40.35
9,-0.05,1.00,0.14,51.57
9,-0.11,1.00,0.14,48.81
9,-0.10,1.00,0.10,48.81
9,-0.07,1.03,0.09,39.73
9,-0.01,1.03,0.07,47.54
9,0.04,1.00,0.13,47.54
9,-0.01,0.98,0.17,45.19
9,-0.01,0.98,0.15,49.33
9,-0.11,0.98,0.15,49.33
9,-0.11,0.98,0.10,51.54
9,-0.11,0.97,0.10,48.39
9,-0.02,1.04,0.10,48.09
9,0.05,1.02,0.11,40.26
9,0.05,0.98,0.16,45.86
9,0.00,0.98,0.16,43.73
9,-0.09,0.99,0.16,43.73
9,-0.12,0.99,0.11,44.20
9,-0.12,0.99,0.10,39.68
9,-0.06,1.03,0.10,39.68
9,0.03,1.01,0.12,43.37
9,0.03,1.04,0.17,44.49
9,0.02,0.98,0.17,44.16
9,-0.07,0.99,0.16,42.59
9,-0.07,0.98,0.12,45.94
9,-0.12,0.98,0.12,45.52
9,-0.08,1.02,0.08,45.52
9,-0.10,1.04,0.09,43.64
9,0.02,1.04,0.08,47.45
9,0.04,0.99,0.14,47.45
9,-0.05,0.99,0.17,48.54
9,-0.05,0.98,0.14,44.50
9,-0.13,0.98,0.14,44.36
9,-0.09,1.00,0.10,39.66
9,-0.09,1.04,0.09,39.22
9,0.00,1.04,0.09,39.82
9,0.05,0.99,0.13,39.82
9,0.04,0.99,0.18,40.70
9,-0.02,0.99,0.15,45.13
9,-0.11,0.99,0.15,45.13
9,-0.11,0.99,0.11,51.78
9,-0.11,0.99,0.08,47.50
9,-0.02,1.04,0.08,47.45
9,0.05,1.01,0.13,49.02
9,0.05,1.04,0.17,42.63
9,-0.00,0.97,0.17,38.00
9,-0.10,0.98,0.15,38.00
9,-0.10,0.98,0.11,44.31
9,-0.11,0.98,0.08,43.84
9,-0.05,1.03,0.08,43.84
9,0.04,1.02,0.12,46.06
9,0.04,1.02,0.16,47.51
9,0.02,0.97,0.16,47.51
9,-0.08,0.98,0.17,37.06
9,-0.08,0.98,0.12,41.14
9,-0.11,0.98,0.12,40.88
9,-0.08,1.02,0.08,43.23
9,-0.08,1.03,0.09,49.09
9,0.03,1.03,0.08,41.72
9,0.04,0.99,0.15,41.72
9,0.01,0.98,0.17,41.61
9,-0.05,0.98,0.13,55.88
9,-0.11,0.99,0.13,55.88
9,-0.09,1.00,0.09,48.76
9,-0.09,1.03,0.10,50.90
9,0.01,1.03,0.10,51.38
9,0.04,1.00,0.13,49.82
9,0.04,0.98,0.17,46.79
9,-0.04,0.98,0.17,49.21
9,-0.12,0.98,0.15,49.21
9,-0.11,0.99,0.11,44.17
9,-0.11,0.99,0.08,55.48
9,-0.02,1.03,0.08,55.48
9,0.05,1.01,0.12,49.52
9,0.05,1.01,0.18,42.78
9,-0.01,0.98,0.18,42.38
9,-0.10,0.99,0.15,53.35
9,-0.10,0.99,0.11,46.08
9,-0.12,0.99,0.11,52.92
9,-0.04,1.03,0.08,52.92
9,-0.02,1.01,0.12,40.08
9,0.05,1.01,0.09,42.65
9,0.01,0.98,0.16,42.65
9,-0.08,0.99,0.17,45.29
9,-0.08,0.99,0.12,44.57
9,-0.12,0.98,0.12,43.80
9,-0.07,1.03,0.09,45.37
9,-0.07,1.04,0.10,40.37
9,0.04,1.04,0.10,43.46
9,0.02,0.98,0.16,43.46
9,0.02,0.99,0.18,47.86
9,-0.07,0.99,0.13,45.11
9,-0.12,0.98,0.13,45.11
9,-0.08,1.00,0.09,48.10
9,-0.08,1.00,0.10,44.22
9,0.01,1.03,0.10,44.22
9,0.04,0.99,0.14,46.83
9,0.04,0.98,0.17,43.08
9,-0.04,0.98,0.17,43.25
9,-0.12,0.99,0.13,33.85
9,-0.12,1.00,0.09,41.47
9,-0.10,1.00,0.09,46.05
9,-0.01,1.04,0.10,46.05
9,-0.02,1.00,0.13,39.96
9,0.05,1.00,0.18,40.64
9,-0.01,0.97,0.18,40.64
9,-0.11,0.99,0.14,45.07
9,-0.11,0.99,0.11,40.97
9,-0.11,0.99,0.11,40.81
9,-0.03,1.03,0.10,37.68
9,-0.03,1.01,0.11,50.17
9,0.05,1.01,0.11,52.71
9,0.00,0.98,0.17,52.71
9,0.03,0.98,0.16,41.79
9,-0.10,0.98,0.18,44.89
9,-0.11,0.98,0.11,44.89
9,-0.05,1.02,0.09,40.06
9,-0.05,1.02,0.11,46.89
9,0.03,1.02,0.11,46.60
9,0.03,0.99,0.15,44.25
9,0.03,0.98,0.17,43.08
9,-0.07,0.98,0.17,43.80
9,-0.11,0.98,0.12,43.80
9,-0.07,1.03,0.10,43.95
9,-0.07,1.03,0.10,46.15
9,0.02,1.03,0.10,46.15
9,0.04,1.00,0.15,43.35
9,0.04,1.00,0.16,44.26
9,-0.05,0.98,0.16,44.26
9,-0.12,0.98,0.14,48.21
9,-0.12,0.95,0.10,45.32
9,-0.09,1.01,0.10,44.20
9,-0.01,1.03,0.09,44.20
9,-0.01,1.00,0.14,52.58
9,0.05,1.00,0.18,42.17
9,-0.02,0.98,0.18,42.17
9,-0.04,0.99,0.14,38.01
9,-0.10,0.99,0.11,42.53
9,-0.11,0.99,0.11,42.53
9,-0.03,1.03,0.09,48.79
9,-0.03,1.01,0.12,46.21
                                                                                                                                                                                                                                                                                                                                                                                                                                                                                                                                                                                                                                                                                                                                                                                                                                                                                                                                                                                                                                                           10,-0.12,0.94,0.10,45.69
10,-0.08,1.00,0.10,49.78
10,0.03,1.03,0.11,49.78
10,0.04,1.00,0.13,46.67
10,0.04,1.00,0.18,48.63
10,-0.04,0.98,0.18,48.63
10,-0.11,0.99,0.14,38.02
10,-0.11,0.99,0.10,44.12
10,-0.10,1.00,0.10,44.12
10,-0.00,1.03,0.10,47.70
10,-0.00,1.00,0.13,42.55
10,0.04,1.00,0.13,42.30
10,-0.01,0.98,0.17,43.09
10,-0.01,0.98,0.16,37.26
10,-0.11,0.98,0.17,45.43
10,-0.11,0.99,0.11,45.43
10,-0.10,1.04,0.09,41.22
10,-0.04,1.04,0.12,43.31
10,0.04,1.01,0.12,43.31
10,0.01,0.98,0.17,41.32
10,0.01,0.99,0.15,40.58
10,-0.09,0.99,0.15,40.44
10,-0.12,0.98,0.12,44.36
10,-0.12,1.02,0.09,43.71
10,-0.06,1.02,0.09,38.54
10,0.03,1.02,0.12,38.54
10,0.02,0.99,0.16,42.78
10,0.02,0.99,0.16,42.83
10,-0.07,0.98,0.16,42.83
10,-0.13,0.98,0.13,45.76
10,-0.13,0.98,0.09,39.55
10,-0.08,1.02,0.09,39.55
10,0.02,1.03,0.10,43.84
10,0.02,1.06,0.15,48.04
10,0.04,0.99,0.15,42.86
10,-0.04,0.98,0.16,42.86
10,-0.04,0.98,0.13,35.84
10,-0.11,0.98,0.16,47.48
10,-0.10,1.01,0.10,47.48
10,-0.07,1.03,0.10,45.87
10,-0.01,1.03,0.13,43.41
10,0.04,1.00,0.13,43.41
10,-0.03,0.98,0.18,42.64
10,-0.03,0.98,0.13,40.78
10,-0.11,0.98,0.13,41.14
10,-0.10,1.00,0.11,41.14
10,-0.10,1.04,0.10,45.54
10,-0.03,1.04,0.10,44.56
10,0.04,1.01,0.12,44.56
10,0.00,0.99,0.16,41.90
10,0.00,0.99,0.15,41.91
10,-0.09,0.99,0.15,41.91
10,-0.11,0.98,0.12,46.66
10,-0.11,0.98,0.09,46.32
10,-0.05,1.02,0.09,46.24
10,0.03,1.02,0.13,47.02
10,0.03,1.05,0.15,42.70
10,0.02,0.98,0.15,51.02
10,-0.08,0.99,0.16,51.02
10,-0.12,0.98,0.13,41.94
10,-0.12,0.98,0.15,42.61
10,-0.07,1.01,0.09,42.61
10,0.03,1.02,0.10,46.75
10,0.03,1.02,0.15,41.62
10,0.04,0.99,0.15,41.62
10,-0.06,0.98,0.17,38.24
10,-0.06,0.99,0.13,48.86
10,-0.12,0.99,0.13,48.80
10,-0.09,1.00,0.10,38.62
10,-0.09,1.04,0.10,49.69
10,0.00,1.04,0.10,42.13
10,0.04,1.00,0.14,42.13
10,0.04,0.98,0.18,43.64
10,-0.03,0.98,0.15,40.09
10,-0.11,0.99,0.15,40.09
10,-0.11,0.99,0.11,38.50
10,-0.11,0.96,0.09,42.52
10,-0.02,1.03,0.09,42.52
10,0.04,1.01,0.12,40.17
10,0.04,0.98,0.16,44.33
10,-0.00,0.98,0.16,41.83
10,-0.09,0.99,0.15,41.83
10,-0.11,0.98,0.11,44.20
10,-0.11,0.98,0.09,38.68
10,-0.04,1.03,0.09,38.68
10,0.05,1.01,0.12,41.00
10,0.05,1.01,0.16,43.46
10,0.01,0.98,0.16,43.27
10,-0.08,0.98,0.16,41.70
10,-0.08,0.98,0.11,38.81
10,-0.12,0.98,0.11,41.82
10,-0.07,1.02,0.09,41.82
10,-0.07,1.03,0.11,41.80
10,0.01,1.03,0.09,41.29
10,0.03,0.99,0.16,41.29
10,0.00,0.98,0.18,43.58
10,-0.06,0.98,0.12,44.62
10,-0.12,0.98,0.12,44.62
10,-0.09,1.01,0.10,46.06
10,-0.09,1.02,0.10,46.13
10,0.01,1.02,0.10,45.43
10,0.03,1.00,0.15,39.16
10,0.03,0.98,0.16,45.87
10,-0.03,0.98,0.16,46.34
10,-0.12,0.98,0.13,46.34
10,-0.10,0.99,0.11,43.89
10,-0.10,0.99,0.09,46.69
10,-0.02,1.03,0.09,46.69
10,0.04,1.00,0.14,45.90
10,0.04,1.00,0.18,40.47
10,-0.01,0.98,0.18,40.54
10,-0.10,0.98,0.14,45.24
10,-0.10,0.99,0.11,45.05
10,-0.11,0.99,0.11,42.56
10,-0.04,1.03,0.09,42.56
10,-0.04,1.01,0.12,39.49
10,0.03,1.01,0.10,45.55
10,0.02,0.99,0.16,45.55
10,-0.09,0.98,0.16,48.23
10,-0.09,0.98,0.12,46.90
10,-0.12,0.99,0.12,46.90
10,-0.06,1.02,0.09,49.19
10,-0.06,1.03,0.11,44.07
10,0.02,1.03,0.11,44.33
10,0.03,0.98,0.16,44.33
10,0.03,0.99,0.16,44.50
10,-0.07,0.99,0.16,41.03
10,-0.11,0.99,0.13,41.03
10,-0.08,1.02,0.09,48.24
10,-0.08,1.02,0.10,37.54
10,0.01,1.03,0.10,37.54
10,0.04,1.00,0.14,38.87
10,0.04,0.98,0.17,47.45
10,-0.04,0.98,0.17,47.47
10,-0.12,0.99,0.13,45.12
10,-0.12,1.00,0.09,51.71
10,-0.10,1.00,0.09,43.01
10,-0.02,1.03,0.09,43.01
10,-0.02,1.00,0.13,38.04
10,0.04,1.00,0.17,47.22
10,-0.02,0.97,0.17,47.22
10,-0.10,0.99,0.14,43.90
10,-0.10,0.99,0.10,37.94
10,-0.11,0.99,0.10,37.94
10,-0.04,1.03,0.09,43.90
10,-0.04,1.02,0.12,45.20
10,0.04,1.02,0.12,46.56
10,0.00,0.98,0.17,46.56
10,0.00,0.98,0.16,37.97
10,-0.09,0.98,0.18,46.56
10,-0.11,0.99,0.12,46.56
10,-0.12,1.03,0.09,45.06
10,-0.05,1.03,0.11,44.93
10,0.03,1.01,0.11,44.93
10,0.03,0.98,0.16,45.08
10,0.03,0.99,0.16,43.38
10,-0.07,0.99,0.16,43.56
10,-0.12,0.98,0.12,40.42
10,-0.12,1.02,0.09,41.32
10,-0.07,1.02,0.09,41.87
10,0.02,1.02,0.10,41.87
10,0.02,0.99,0.14,45.45
10,0.02,0.99,0.16,44.81
10,-0.05,0.98,0.16,44.81
10,-0.12,0.99,0.12,43.70
10,-0.12,0.99,0.09,45.56
10,-0.09,1.01,0.09,45.72
10,0.00,1.03,0.10,39.45
10,0.00,1.00,0.13,48.44
10,0.04,1.00,0.13,41.51
10,-0.02,0.98,0.18,41.51
10,-0.02,0.99,0.14,51.19
10,-0.11,0.99,0.17,51.15
10,-0.10,0.99,0.10,51.15
10,-0.03,1.03,0.09,41.53
10,-0.03,1.03,0.13,48.19
10,0.04,1.01,0.13,48.19
10,0.01,0.99,0.17,41.30
10,0.01,0.99,0.15,44.73
10,-0.09,0.99,0.15,44.87
10,-0.10,0.98,0.12,58.97
10,-0.10,1.03,0.09,46.16
10,-0.05,1.03,0.09,48.83
10,0.03,1.01,0.11,48.83
10,0.02,0.99,0.17,48.29
10,0.02,0.99,0.16,34.81
10,-0.08,0.98,0.16,34.81
10,-0.12,0.99,0.12,52.17
10,-0.12,0.95,0.10,46.75
10,-0.08,1.01,0.10,46.58
10,0.02,1.02,0.10,45.01
10,0.02,1.00,0.15,43.63
10,0.02,1.00,0.15,45.20
10,-0.06,0.99,0.17,45.20
10,-0.05,0.99,0.13,41.86
10,-0.11,0.99,0.16,38.87
10,-0.09,1.01,0.10,38.87
10,-0.01,1.03,0.10,42.94
10,-0.01,1.03,0.14,44.17
10,0.04,1.00,0.14,44.17
10,-0.03,0.97,0.17,46.99
10,-0.03,0.99,0.15,42.24
10,-0.11,0.99,0.15,46.44
11,-0.11,1.03,0.09,48.22
11,-0.05,1.03,0.12,50.73
11,0.04,1.01,0.12,50.73
11,0.01,0.98,0.16,43.94
11,0.01,0.98,0.16,37.85
11,-0.07,0.99,0.16,37.85
11,-0.12,0.98,0.11,50.80
11,-0.12,0.96,0.10,43.93
11,-0.07,1.02,0.10,44.09
11,0.03,1.02,0.11,49.57
11,0.03,0.99,0.15,41.33
11,0.03,0.99,0.15,39.23
11,-0.06,0.99,0.17,39.23
11,-0.05,0.98,0.13,43.07
11,-0.11,0.98,0.15,47.56
11,-0.08,1.02,0.09,47.56
11,0.01,1.02,0.10,45.11
11,0.01,1.02,0.14,42.45
11,0.04,1.00,0.14,42.56
11,-0.03,0.98,0.16,44.91
11,-0.03,0.99,0.13,39.20
11,-0.11,0.99,0.13,42.49
11,-0.10,1.00,0.10,42.49
11,-0.10,1.03,0.10,46.21
11,-0.02,1.03,0.07,40.49
11,0.04,1.00,0.13,40.49
11,0.05,0.97,0.16,42.10
11,-0.01,0.97,0.13,42.05
11,-0.09,0.99,0.13,42.05
11,-0.11,1.00,0.11,48.95
11,-0.11,0.97,0.10,40.75
11,-0.05,1.03,0.10,40.68
11,0.04,1.01,0.12,39.11
11,0.04,0.98,0.16,43.46
11,0.01,0.98,0.16,48.93
11,-0.09,0.99,0.15,48.93
11,-0.12,0.99,0.11,48.88
11,-0.12,0.99,0.09,38.95
11,-0.06,1.02,0.09,38.95
11,0.03,1.02,0.10,46.84
11,0.03,1.02,0.15,46.66
11,0.02,0.99,0.15,46.35
11,-0.06,0.99,0.16,42.43
11,-0.06,0.98,0.11,42.47
11,-0.12,0.98,0.11,51.37
11,-0.08,1.02,0.09,51.37
11,-0.11,1.02,0.11,41.85
11,0.01,1.02,0.07,40.35
11,0.04,1.00,0.14,40.35
11,-0.04,0.98,0.17,47.85
11,-0.04,0.98,0.13,45.77
11,-0.11,0.99,0.13,45.77
11,-0.10,1.01,0.10,45.59
11,-0.10,1.03,0.10,34.84
11,-0.01,1.03,0.10,34.78
11,0.04,1.01,0.13,43.40
11,0.04,0.98,0.17,41.44
11,-0.02,0.98,0.14,42.51
11,-0.10,0.99,0.14,42.51
11,-0.10,1.00,0.11,46.08
11,-0.10,1.00,0.09,47.56
11,-0.03,1.03,0.09,47.56
11,0.03,1.02,0.13,47.19
11,0.03,1.04,0.16,42.25
11,0.01,0.98,0.16,42.89
11,-0.09,0.98,0.15,38.19
11,-0.09,0.99,0.11,38.63
11,-0.11,0.99,0.11,46.75
11,-0.05,1.02,0.10,46.75
11,-0.03,1.02,0.13,42.45
11,0.03,1.02,0.16,40.61
11,0.02,0.98,0.16,40.61
11,-0.07,0.99,0.16,37.65
11,-0.07,0.99,0.12,48.29
11,-0.11,0.99,0.12,48.10
11,-0.08,1.01,0.09,44.18
11,-0.08,1.02,0.11,43.04
11,0.02,1.02,0.11,41.84
11,0.02,0.99,0.15,41.84
11,0.02,0.99,0.17,42.20
11,-0.05,0.99,0.13,42.95
11,-0.11,0.98,0.13,42.95
11,-0.09,1.00,0.10,39.91
11,-0.09,1.00,0.09,41.96
11,0.00,1.03,0.09,41.96
11,0.03,1.00,0.14,47.54
11,0.03,0.98,0.17,38.26
11,-0.02,0.98,0.17,38.01
11,-0.11,0.98,0.14,49.76
11,-0.11,1.00,0.10,50.20
11,-0.11,1.00,0.10,48.15
11,-0.02,1.03,0.09,48.15
11,-0.02,1.01,0.12,46.46
11,0.04,1.01,0.10,41.97
11,-0.01,0.98,0.16,41.97
11,-0.09,0.99,0.14,44.56
11,-0.09,0.99,0.11,40.99
11,-0.12,0.99,0.11,41.36
11,-0.04,1.03,0.10,39.79
11,-0.04,1.02,0.11,43.77
11,0.04,1.02,0.11,45.47
11,0.01,0.98,0.16,45.47
11,0.05,0.98,0.16,49.05
11,-0.08,0.98,0.18,44.60
11,-0.12,0.99,0.11,44.60
11,-0.06,1.02,0.10,39.84
11,-0.06,1.02,0.12,47.89
11,0.01,1.01,0.12,47.89
11,0.03,1.00,0.15,43.90
11,0.03,0.99,0.16,39.53
11,-0.06,0.99,0.16,45.26
11,-0.11,0.99,0.13,45.26
11,-0.11,1.02,0.09,42.58
11,-0.09,1.02,0.10,45.11
11,0.00,1.02,0.10,45.11
11,0.03,1.00,0.13,42.81
11,0.03,1.00,0.16,39.30
11,-0.03,0.98,0.16,39.30
11,-0.12,0.99,0.14,43.47
11,-0.12,1.00,0.10,44.00
11,-0.10,1.00,0.10,44.57
11,-0.02,1.03,0.09,43.79
11,-0.02,1.01,0.12,45.72
11,0.04,1.01,0.12,44.38
11,-0.01,0.98,0.16,44.38
11,-0.04,0.99,0.14,41.16
11,-0.10,0.99,0.17,45.95
11,-0.11,0.99,0.11,45.95
11,-0.04,1.02,0.09,51.68
11,-0.04,1.02,0.12,48.03
11,0.03,1.01,0.12,47.89
11,0.01,0.98,0.17,52.59
11,0.01,0.99,0.15,47.02
11,-0.08,0.99,0.15,45.07
11,-0.11,0.98,0.12,45.07
11,-0.11,1.01,0.09,41.02
11,-0.07,1.01,0.11,44.90
11,0.03,1.02,0.11,44.90
11,0.02,0.99,0.15,46.66
11,0.02,0.99,0.16,42.54
11,-0.06,0.99,0.16,42.54
11,-0.11,0.99,0.12,44.16
11,-0.11,0.95,0.09,40.88
11,-0.08,1.01,0.09,40.72
11,0.01,1.03,0.10,43.07
11,0.01,1.00,0.14,46.84
11,0.04,1.00,0.14,47.95
11,-0.03,0.99,0.18,47.95
11,-0.05,0.99,0.14,48.96
11,-0.11,0.99,0.16,44.12
11,-0.10,1.00,0.10,44.12
11,-0.01,1.03,0.10,50.16
11,-0.01,1.03,0.13,41.49
11,0.04,1.01,0.13,41.62
11,-0.02,0.99,0.17,45.53
11,-0.02,0.99,0.15,46.48
11,-0.10,0.99,0.15,50.28
11,-0.11,0.99,0.10,50.28
11,-0.09,1.03,0.09,51.10
11,-0.03,1.03,0.07,47.74
11,0.05,1.02,0.13,47.74
11,0.00,0.98,0.17,44.18
11,0.00,0.98,0.14,40.41
11,-0.09,1.00,0.14,40.41
11,-0.12,0.98,0.11,39.05
11,-0.12,0.96,0.09,46.13
11,-0.06,1.02,0.09,45.88
11,0.03,1.02,0.11,43.53
11,0.03,0.98,0.15,49.85
11,0.02,0.98,0.17,43.94
11,-0.06,0.98,0.17,43.94
11,-0.11,0.99,0.12,39.71
11,-0.11,0.99,0.09,41.10
11,-0.08,1.00,0.09,41.10
11,0.01,1.02,0.11,48.36
11,0.01,1.06,0.15,47.07
11,0.03,0.99,0.15,47.44
11,-0.04,0.99,0.17,41.18
11,-0.04,0.99,0.14,46.78
11,-0.11,0.99,0.14,47.48
11,-0.09,1.01,0.10,47.48
11,-0.12,1.02,0.10,46.30
11,0.00,1.02,0.07,40.88
11,0.05,1.01,0.13,40.88
11,-0.01,0.99,0.16,43.56
11,-0.01,0.99,0.14,35.23
11,-0.10,0.98,0.14,35.90
11,-0.10,0.99,0.10,46.87
11,-0.10,0.97,0.09,42.05
11,-0.04,1.03,0.09,43.77
11,0.04,1.01,0.12,43.77
11,0.04,0.98,0.16,42.85
11,-0.00,0.98,0.14,43.75
11,-0.09,0.99,0.14,43.75
11,-0.11,0.99,0.11,47.96
11,-0.11,0.99,0.10,44.18
11,-0.05,1.03,0.10,44.18
11,0.02,1.02,0.11,45.04
11,0.02,1.05,0.16,39.54
11,0.02,0.99,0.16,39.51
11,-0.07,0.98,0.16,44.21
11,-0.07,0.98,0.13,46.26
11,-0.11,0.98,0.13,45.22
11,-0.07,1.01,0.10,45.22
11,-0.11,1.02,0.11,38.07
11,0.02,1.02,0.08,42.77
11,0.03,1.00,0.15,42.77
11,-0.05,0.98,0.16,44.25
11,-0.05,0.98,0.13,50.13
11,-0.11,0.99,0.13,50.13
11,-0.09,1.01,0.09,42.29
11,-0.09,1.02,0.09,45.60
11,-0.00,1.02,0.09,47.81
11,0.04,1.00,0.14,47.81
11,0.03,0.98,0.16,40.19
11,-0.03,0.98,0.15,42.94
11,-0.10,0.99,0.15,42.94
11,-0.11,1.00,0.11,47.05
11,-0.11,1.00,0.10,43.20
11,-0.02,1.03,0.10,43.20
11,0.04,1.01,0.13,39.20
11,0.04,1.04,0.17,45.14
11,-0.01,0.98,0.17,44.88
11,-0.09,0.99,0.14,44.88
11,-0.09,0.99,0.10,47.57
11,-0.11,0.99,0.10,42.85
11,-0.05,1.02,0.10,42.85
11,-0.03,1.01,0.13,41.21
11,0.03,1.01,0.15,42.87
11,0.01,0.98,0.15,42.87
11,-0.09,0.99,0.16,46.07
11,-0.09,0.98,0.11,46.15
11,-0.13,0.98,0.11,45.94
12,-0.08,1.02,0.10,50.09
12,0.01,1.02,0.10,45.64
12,0.04,0.99,0.14,45.64
12,0.04,0.99,0.16,41.07
12,-0.04,0.99,0.14,45.05
12,-0.10,0.99,0.14,45.05
12,-0.10,1.00,0.10,41.08
12,-0.10,1.00,0.10,39.41
12,-0.01,1.03,0.10,39.41
12,0.04,1.01,0.14,39.12
12,0.04,1.05,0.17,45.02
12,-0.02,0.99,0.17,45.03
12,-0.10,0.98,0.14,45.03
12,-0.10,0.99,0.11,47.25
12,-0.11,0.99,0.11,45.79
12,-0.03,1.02,0.10,45.79
12,-0.03,1.01,0.13,44.40
12,0.03,1.01,0.15,43.27
12,0.02,0.99,0.15,43.27
12,-0.08,0.98,0.16,44.08
12,-0.08,0.98,0.12,45.80
12,-0.11,0.99,0.12,45.59
12,-0.06,1.03,0.10,40.89
12,-0.06,1.02,0.11,43.70
12,0.02,1.02,0.11,40.31
12,0.03,0.99,0.15,40.31
12,0.00,0.98,0.15,41.63
12,-0.06,0.98,0.18,41.90
12,-0.11,0.99,0.12,41.90
12,-0.09,1.01,0.09,47.39
12,-0.09,1.01,0.11,52.22
12,0.01,1.01,0.11,52.22
12,0.03,0.99,0.14,41.61
12,0.03,0.98,0.16,45.84
12,-0.03,0.98,0.16,41.99
12,-0.11,0.99,0.13,41.99
12,-0.11,1.01,0.11,47.06
12,-0.10,1.01,0.10,45.78
12,-0.02,1.03,0.10,45.78
12,-0.02,1.00,0.13,42.47
12,0.04,1.00,0.17,44.04
12,-0.01,0.98,0.17,44.04
12,-0.10,0.99,0.14,37.81
12,-0.10,1.00,0.11,44.22
12,-0.11,1.00,0.11,44.01
12,-0.04,1.02,0.10,40.09
12,-0.04,1.01,0.12,48.23
12,0.04,1.01,0.12,39.27
12,0.00,0.98,0.16,39.27
12,0.04,0.99,0.14,40.41
12,-0.09,0.99,0.18,44.00
12,-0.11,0.98,0.12,44.00
12,-0.06,1.02,0.09,42.94
12,-0.06,1.02,0.11,42.57
12,0.03,1.01,0.11,42.27
12,0.02,0.98,0.16,44.62
12,0.02,1.00,0.15,45.52
12,-0.07,1.00,0.15,42.45
12,-0.11,0.99,0.12,42.45
12,-0.11,1.01,0.10,46.11
12,-0.08,1.01,0.11,40.46
12,0.01,1.03,0.11,40.46
12,0.03,1.00,0.15,41.98
12,0.03,1.00,0.16,44.44
12,-0.05,0.98,0.16,44.44
12,-0.11,0.99,0.11,45.95
12,-0.11,0.95,0.10,43.09
12,-0.09,1.01,0.10,43.30
12,-0.01,1.02,0.10,43.30
12,-0.01,1.00,0.14,43.06
12,0.03,1.00,0.14,46.95
12,-0.02,0.98,0.18,46.95
12,-0.04,0.99,0.13,43.05
12,-0.10,0.99,0.16,37.65
12,-0.11,1.00,0.10,37.65
12,-0.02,1.03,0.10,38.43
12,-0.02,1.02,0.13,39.58
12,0.04,1.02,0.13,39.13
12,0.00,0.98,0.15,47.74
12,0.00,1.00,0.15,44.45
12,-0.09,1.00,0.15,50.43
12,-0.11,0.99,0.12,50.43
12,-0.11,1.02,0.10,40.38
12,-0.05,1.02,0.06,46.60
12,0.03,1.01,0.13,46.60
12,0.02,0.99,0.16,41.32
12,0.02,0.99,0.15,45.95
12,-0.07,0.99,0.15,45.95
12,-0.12,0.98,0.12,41.64
12,-0.12,0.95,0.10,44.12
12,-0.07,1.02,0.10,44.02
12,0.02,1.02,0.11,48.72
12,0.02,1.00,0.14,48.47
12,0.02,1.00,0.15,47.28
12,-0.05,0.99,0.15,47.28
12,-0.06,0.99,0.13,38.85
12,-0.12,0.99,0.10,47.38
12,-0.09,1.00,0.10,47.38
12,-0.01,1.03,0.11,50.41
12,-0.01,1.01,0.14,49.93
12,0.04,1.01,0.14,49.78
12,-0.03,0.98,0.17,38.82
12,-0.03,0.99,0.14,45.91
12,-0.11,0.99,0.14,50.77
12,-0.10,1.00,0.10,50.77
12,-0.08,1.02,0.10,42.06
12,-0.02,1.02,0.07,46.75
12,0.04,1.01,0.14,46.75
12,-0.01,0.98,0.17,47.47
12,-0.01,0.98,0.15,41.39
12,-0.10,0.99,0.15,40.73
12,-0.11,0.99,0.11,47.78
12,-0.11,0.95,0.10,47.91
12,-0.05,1.02,0.10,40.19
12,0.03,1.01,0.13,40.19
12,0.03,0.98,0.16,44.20
12,0.01,0.98,0.14,43.71
12,-0.07,0.99,0.14,43.71
12,-0.11,0.99,0.12,44.68
12,-0.11,0.99,0.10,42.58
12,-0.07,1.02,0.10,42.58
12,0.01,1.02,0.12,41.60
12,0.01,1.00,0.16,46.62
12,0.02,1.00,0.16,46.65
12,-0.06,0.99,0.15,53.70
12,-0.06,0.99,0.12,45.70
12,-0.10,0.99,0.12,44.66
12,-0.09,1.01,0.09,44.66
12,-0.12,1.02,0.10,47.34
12,0.00,1.02,0.08,43.90
12,0.03,1.00,0.14,43.90
12,-0.04,0.98,0.17,44.05
12,-0.04,0.98,0.14,38.90
12,-0.11,0.98,0.14,38.47
12,-0.09,0.99,0.10,47.09
12,-0.09,1.02,0.11,37.97
12,-0.01,1.02,0.11,48.25
12,0.03,1.00,0.14,48.25
12,0.05,0.99,0.16,44.42
12,-0.01,0.99,0.14,42.94
12,-0.09,0.99,0.14,42.94
12,-0.12,1.01,0.10,41.67
12,-0.12,1.01,0.09,42.70
12,-0.03,1.02,0.09,42.70
12,0.03,1.01,0.13,44.77
12,0.03,1.04,0.16,48.89
12,0.01,0.98,0.16,48.58
12,-0.08,0.99,0.15,44.66
12,-0.08,0.99,0.11,44.10
12,-0.12,0.99,0.10,46.18
12,-0.06,1.02,0.10,46.18
12,-0.04,1.02,0.11,47.50
12,0.03,1.02,0.15,40.21
12,0.02,1.00,0.15,40.21
12,-0.06,0.99,0.16,43.53
12,-0.06,0.98,0.13,44.07
12,-0.11,0.98,0.13,44.00
12,-0.07,1.01,0.10,43.21
12,-0.07,1.02,0.11,42.96
12,0.01,1.02,0.11,44.14
12,0.03,0.99,0.14,44.14
12,0.03,0.99,0.15,45.04
12,-0.04,0.99,0.18,45.25
12,-0.11,0.99,0.12,45.25
12,-0.10,1.01,0.10,40.73
12,-0.10,1.01,0.10,44.18
12,-0.01,1.03,0.10,44.33
12,0.03,1.00,0.13,49.03
12,0.03,1.04,0.15,52.31
12,-0.03,0.98,0.15,43.31
12,-0.10,0.99,0.14,43.31
12,-0.10,1.00,0.10,41.42
12,-0.10,1.00,0.10,36.88
12,-0.04,1.02,0.10,36.88
12,-0.03,1.01,0.12,42.91
12,0.03,1.01,0.16,44.00
12,0.01,0.99,0.16,44.00
12,-0.08,0.99,0.15,42.87
12,-0.08,1.00,0.11,44.83
12,-0.11,1.00,0.11,45.16
12,-0.05,1.03,0.09,48.30
12,-0.05,1.02,0.11,48.93
12,0.03,1.02,0.11,44.40
12,0.02,0.98,0.16,44.40
12,0.00,0.98,0.15,41.61
12,-0.06,0.98,0.18,39.31
12,-0.11,0.99,0.12,39.31
12,-0.07,1.02,0.10,42.28
12,-0.07,1.02,0.11,45.39
12,0.01,1.02,0.11,45.62
12,0.03,0.99,0.14,47.97
12,0.03,0.98,0.16,40.73
12,-0.04,0.98,0.16,51.40
12,-0.11,0.99,0.13,51.40
12,-0.10,1.00,0.10,44.10
12,-0.10,1.00,0.10,39.87
12,-0.01,1.02,0.10,39.87
12,0.03,1.01,0.14,38.02
12,0.03,1.01,0.16,45.63
12,-0.02,0.99,0.16,45.63
12,-0.10,0.99,0.14,42.80
12,-0.10,1.00,0.10,38.31
12,-0.10,1.00,0.10,38.20
12,-0.03,1.02,0.10,47.60
12,-0.03,1.01,0.11,40.57
12,0.03,1.01,0.09,46.29
12,-0.00,0.98,0.15,46.29
12,-0.03,0.99,0.14,58.03
12,-0.09,0.99,0.11,49.58
12,-0.12,0.99,0.11,49.58
12,-0.05,1.02,0.10,45.72
12,-0.05,1.02,0.11,46.04
12,0.02,1.02,0.11,45.97
12,0.01,0.99,0.16,42.84
12,0.01,0.99,0.16,45.89
12,-0.07,0.99,0.16,42.00
12,-0.12,0.99,0.12,42.00
12,-0.07,1.02,0.11,53.44
12,-0.07,1.02,0.11,54.57
12,0.01,1.02,0.11,54.57
12,0.03,0.99,0.14,42.27
12,0.03,0.99,0.16,52.83
12,-0.04,0.98,0.16,52.84
12,-0.12,0.99,0.13,41.88
12,-0.12,0.94,0.10,47.65
12,-0.09,1.00,0.10,42.57
12,-0.01,1.03,0.09,42.57
12,-0.01,0.99,0.15,38.39
12,0.03,0.99,0.17,49.05
12,-0.03,0.98,0.17,49.05
12,-0.05,0.98,0.14,42.43
12,-0.12,0.98,0.11,44.78
12,-0.11,1.00,0.11,44.78
13,-0.05,1.02,0.12,42.42
13,0.04,1.01,0.12,42.61
13,0.01,0.99,0.16,40.26
13,0.01,0.98,0.15,47.44
13,-0.08,0.98,0.15,42.58
13,-0.11,0.99,0.11,42.58
13,-0.11,1.02,0.10,40.31
13,-0.07,1.02,0.11,49.00
13,0.02,1.02,0.11,49.00
13,0.02,0.99,0.15,49.13
13,0.02,0.99,0.16,42.08
13,-0.06,0.99,0.16,42.08
13,-0.11,0.99,0.13,40.81
13,-0.11,0.95,0.10,49.85
13,-0.09,1.01,0.10,49.61
13,-0.00,1.02,0.11,39.43
13,-0.00,1.00,0.14,36.96
13,0.02,1.00,0.14,42.76
13,-0.04,0.99,0.16,42.76
13,-0.05,0.99,0.14,41.77
13,-0.11,0.99,0.17,41.37
13,-0.10,1.00,0.10,41.37
13,-0.03,1.02,0.10,43.75
13,-0.03,1.02,0.14,42.56
13,0.04,1.01,0.14,42.26
13,-0.02,0.98,0.16,39.91
13,-0.02,0.99,0.15,44.75
13,-0.10,0.99,0.15,46.92
13,-0.10,0.99,0.11,46.92
13,-0.10,1.02,0.10,51.30
13,-0.04,1.02,0.07,48.99
13,0.03,1.01,0.14,48.99
13,0.01,0.98,0.17,40.06
13,0.01,0.98,0.15,41.24
13,-0.08,0.99,0.15,41.24
13,-0.12,0.98,0.11,43.79
13,-0.12,0.96,0.10,45.27
13,-0.06,1.02,0.10,44.58
13,0.03,1.01,0.12,47.72
13,0.03,0.98,0.16,51.02
13,0.01,0.98,0.16,45.99
13,-0.06,0.99,0.16,45.99
13,-0.05,0.99,0.13,42.77
13,-0.11,0.99,0.10,37.30
13,-0.07,1.02,0.10,37.30
13,0.01,1.02,0.11,39.67
13,0.01,1.06,0.15,42.28
13,0.03,0.99,0.15,42.45
13,-0.04,0.99,0.16,41.67
13,-0.04,1.00,0.13,41.53
13,-0.10,1.00,0.13,47.66
13,-0.10,1.00,0.10,47.66
13,-0.07,1.02,0.11,42.67
13,-0.01,1.02,0.08,41.49
13,0.02,1.00,0.14,41.49
13,-0.01,0.99,0.16,45.98
13,-0.01,0.99,0.14,45.25
13,-0.10,0.99,0.14,44.77
13,-0.11,0.99,0.11,51.82
13,-0.11,0.96,0.10,42.35
13,-0.04,1.03,0.10,46.92
13,0.02,1.02,0.13,46.92
13,0.02,0.99,0.17,50.10
13,0.00,0.99,0.14,34.78
13,-0.09,0.99,0.14,34.78
13,-0.11,0.99,0.11,44.80
13,-0.11,0.99,0.11,41.01
13,-0.05,1.01,0.11,41.01
13,0.02,1.02,0.12,37.61
13,0.02,1.05,0.16,45.02
13,0.02,0.98,0.16,44.83
13,-0.07,0.99,0.15,40.91
13,-0.07,0.99,0.12,48.77
13,-0.11,0.99,0.12,49.86
13,-0.07,1.02,0.10,49.86
13,-0.12,1.01,0.11,46.22
13,0.00,1.01,0.09,50.09
13,0.03,0.99,0.16,50.09
13,-0.05,0.98,0.16,46.20
13,-0.05,0.98,0.14,44.27
13,-0.11,0.98,0.14,44.19
13,-0.09,1.01,0.10,46.54
13,-0.09,1.02,0.11,38.63
13,-0.01,1.02,0.11,42.04
13,0.03,1.00,0.14,42.04
13,0.04,0.98,0.16,51.28
13,-0.03,0.98,0.14,44.70
13,-0.11,0.99,0.14,44.70
13,-0.10,1.00,0.10,48.95
13,-0.10,1.00,0.10,40.38
13,-0.02,1.02,0.10,40.38
13,0.04,1.01,0.12,43.85
13,0.04,1.04,0.16,46.91
13,-0.01,0.98,0.16,46.77
13,-0.08,0.98,0.15,42.85
13,-0.08,1.00,0.11,48.05
13,-0.10,1.00,0.10,45.03
13,-0.05,1.01,0.10,45.03
13,-0.04,1.01,0.12,47.11
13,0.03,1.01,0.16,43.37
13,0.01,0.98,0.16,43.37
13,-0.07,0.99,0.16,50.75
13,-0.07,0.99,0.12,44.87
13,-0.11,0.99,0.12,45.09
13,-0.06,1.01,0.10,41.17
13,-0.06,1.01,0.11,45.38
13,0.01,1.01,0.11,51.44
13,0.02,0.99,0.15,51.44
13,0.01,0.99,0.15,41.87
13,-0.05,0.99,0.13,41.77
13,-0.11,0.99,0.13,41.77
13,-0.09,1.01,0.11,42.71
13,-0.09,1.01,0.11,45.77
13,0.00,1.03,0.11,45.41
13,0.03,0.99,0.13,46.97
13,0.03,0.98,0.16,50.10
13,-0.03,0.98,0.16,41.76
13,-0.11,0.99,0.13,41.76
13,-0.11,1.00,0.11,46.82
13,-0.10,1.00,0.11,42.94
13,-0.03,1.02,0.11,42.94
13,-0.03,1.00,0.13,44.14
13,0.03,1.00,0.17,41.17
13,-0.02,0.99,0.17,41.17
13,-0.09,0.99,0.15,40.25
13,-0.09,1.00,0.11,43.68
13,-0.11,1.00,0.11,43.52
13,-0.04,1.02,0.09,41.95
13,-0.04,1.02,0.12,43.77
13,0.02,1.02,0.12,47.82
13,0.01,0.98,0.16,47.82
13,0.05,1.00,0.15,46.06
13,-0.08,1.00,0.17,43.78
13,-0.11,0.99,0.11,43.78
13,-0.06,1.02,0.09,44.76
13,-0.06,1.02,0.13,39.01
13,0.01,1.02,0.13,38.71
13,0.02,0.98,0.15,39.50
13,0.02,0.99,0.16,46.34
13,-0.06,0.99,0.16,40.54
13,-0.12,0.99,0.13,40.54
13,-0.09,1.01,0.10,44.41
13,-0.09,1.01,0.11,49.66
13,0.01,1.02,0.11,49.66
13,0.02,1.00,0.14,39.51
13,0.02,1.00,0.16,46.41
13,-0.04,0.98,0.16,46.41
13,-0.11,0.98,0.13,44.76
13,-0.11,0.94,0.10,38.91
13,-0.09,1.00,0.10,38.50
13,-0.01,1.02,0.10,40.06
13,-0.01,1.00,0.14,46.77
13,0.03,1.00,0.16,48.34
13,-0.02,0.98,0.16,48.34
13,-0.04,0.99,0.15,55.85
13,-0.10,0.99,0.12,45.33
13,-0.10,1.00,0.12,45.33
13,-0.04,1.02,0.10,48.58
13,-0.04,1.02,0.13,39.75
13,0.04,1.02,0.13,39.13
13,0.00,0.99,0.17,43.04
13,0.00,0.99,0.15,44.45
13,-0.08,0.99,0.15,47.44
13,-0.11,0.99,0.11,47.44
13,-0.12,1.02,0.09,42.02
13,-0.06,1.02,0.12,48.10
13,0.01,1.02,0.12,48.10
13,0.02,0.99,0.15,43.26
13,0.02,0.99,0.15,45.57
13,-0.07,0.99,0.15,46.04
13,-0.11,0.99,0.13,42.91
13,-0.11,0.95,0.10,50.72
13,-0.08,1.01,0.10,47.49
13,0.01,1.01,0.11,47.49
13,0.01,1.00,0.15,47.35
13,0.03,1.00,0.16,47.39
13,-0.04,0.99,0.16,47.39
13,-0.05,0.99,0.13,49.60
13,-0.11,0.99,0.10,38.05
13,-0.09,1.01,0.10,38.05
13,-0.01,1.02,0.11,46.69
13,-0.01,1.06,0.14,42.99
13,0.03,1.00,0.14,42.24
13,-0.02,0.98,0.16,42.24
13,-0.02,0.99,0.15,44.35
13,-0.10,0.99,0.15,45.90
13,-0.10,0.99,0.11,45.90
13,-0.10,1.02,0.10,45.59
13,-0.04,1.02,0.08,44.94
13,0.03,1.01,0.14,44.94
13,-0.01,0.98,0.17,39.22
13,-0.01,0.98,0.14,44.47
13,-0.09,0.99,0.14,44.25
13,-0.12,0.99,0.11,45.82
13,-0.12,1.02,0.09,40.60
13,-0.05,1.02,0.09,48.03
13,0.03,1.02,0.13,48.03
13,0.01,0.99,0.16,44.98
13,0.01,0.99,0.15,47.78
13,-0.07,0.99,0.15,47.78
13,-0.12,0.99,0.11,48.50
13,-0.12,0.99,0.10,49.89
13,-0.07,1.02,0.10,49.89
13,0.01,1.01,0.11,41.67
13,0.01,1.05,0.15,46.28
13,0.02,0.99,0.15,46.56
13,-0.05,0.99,0.15,43.43
13,-0.05,0.99,0.12,46.57
13,-0.11,0.99,0.12,42.31
13,-0.08,1.01,0.10,42.31
13,-0.06,1.02,0.11,45.51
13,-0.00,1.02,0.14,38.84
13,0.02,1.00,0.14,38.84
13,-0.03,0.98,0.16,45.49
13,-0.03,0.99,0.13,44.62
13,-0.10,0.99,0.13,44.68
13,-0.10,1.00,0.11,43.90
13,-0.10,1.01,0.11,38.29
13,-0.02,1.01,0.11,42.29
13,0.03,1.01,0.14,42.29
13,0.05,0.98,0.16,50.35
13,-0.01,0.98,0.14,46.80
13,-0.09,0.99,0.14,46.80
13,-0.10,1.00,0.11,47.21
13,-0.10,1.00,0.10,41.30
13,-0.05,1.02,0.10,40.81
13,0.03,1.01,0.13,50.21
13,0.03,1.05,0.15,46.95
13,0.01,0.99,0.15,44.08
13,-0.07,1.00,0.15,44.08
13,-0.07,0.99,0.13,42.00
13,-0.12,0.99,0.16,41.00
13,-0.06,1.01,0.10,41.00
14,0.00,1.03,0.09,45.75
14,0.03,1.00,0.15,45.75
14,-0.03,0.99,0.16,41.71
14,-0.03,0.99,0.14,40.46
14,-0.10,0.98,0.14,40.34
14,-0.10,1.00,0.10,41.12
14,-0.10,1.02,0.10,48.53
14,-0.02,1.02,0.10,47.80
14,0.03,1.01,0.14,47.80
14,0.04,0.99,0.16,44.04
14,-0.02,0.99,0.15,43.44
14,-0.09,1.00,0.15,43.44
14,-0.10,0.99,0.11,41.78
14,-0.10,0.99,0.11,43.59
14,-0.04,1.02,0.11,43.59
14,0.03,1.01,0.13,40.40
14,0.03,1.05,0.16,41.52
14,0.00,0.98,0.16,41.46
14,-0.08,0.99,0.16,39.89
14,-0.08,1.00,0.12,48.53
14,-0.11,1.00,0.10,42.02
14,-0.06,1.02,0.10,42.02
14,-0.04,1.02,0.12,41.07
14,0.02,1.02,0.15,38.78
14,0.02,0.99,0.15,38.78
14,-0.06,0.99,0.14,47.76
14,-0.06,0.99,0.11,43.93
14,-0.11,0.99,0.11,44.48
14,-0.08,1.01,0.10,43.70
14,-0.08,1.02,0.10,40.58
14,0.01,1.02,0.10,41.05
14,0.02,0.99,0.14,41.05
14,0.01,0.98,0.17,48.12
14,-0.05,0.98,0.13,43.34
14,-0.11,0.99,0.13,43.34
14,-0.09,1.00,0.10,50.17
14,-0.09,1.00,0.10,47.40
14,-0.02,1.02,0.10,47.03
14,0.03,1.01,0.13,42.33
14,0.03,1.05,0.16,42.92
14,-0.02,0.99,0.16,44.31
14,-0.10,0.99,0.13,44.31
14,-0.10,1.00,0.10,42.73
14,-0.09,1.00,0.11,41.77
14,-0.04,1.02,0.11,41.77
14,-0.03,1.01,0.13,39.52
14,0.03,1.01,0.17,46.22
14,-0.00,0.99,0.17,46.22
14,-0.08,0.99,0.14,39.74
14,-0.08,0.99,0.12,45.12
14,-0.10,0.99,0.12,44.87
14,-0.06,1.02,0.10,48.00
14,-0.06,1.02,0.11,40.06
14,0.03,1.02,0.11,45.87
14,0.01,1.00,0.15,45.87
14,0.06,0.99,0.17,43.40
14,-0.07,0.99,0.19,39.25
14,-0.11,0.99,0.12,39.25
14,-0.06,1.02,0.10,41.54
14,-0.06,1.02,0.11,42.90
14,0.01,1.01,0.11,42.33
14,0.03,1.00,0.14,47.03
14,0.03,0.98,0.16,46.11
14,-0.04,0.98,0.16,45.95
14,-0.11,0.99,0.13,45.95
14,-0.09,1.01,0.11,47.56
14,-0.09,1.01,0.12,43.82
14,-0.01,1.02,0.12,43.82
14,0.03,1.01,0.15,43.49
14,0.03,1.01,0.15,49.26
14,-0.03,0.98,0.15,49.26
14,-0.09,0.99,0.14,41.40
14,-0.09,0.94,0.11,43.88
14,-0.10,1.01,0.11,44.35
14,-0.04,1.02,0.10,35.73
14,-0.04,1.01,0.12,43.66
14,0.03,1.01,0.09,41.03
14,-0.01,0.97,0.15,41.03
14,-0.03,0.99,0.15,46.48
14,-0.09,0.99,0.11,42.71
14,-0.10,0.99,0.11,42.71
14,-0.05,1.02,0.10,48.77
14,-0.05,1.01,0.13,44.79
14,0.03,1.01,0.13,45.35
14,0.01,1.00,0.15,50.84
14,0.01,0.99,0.15,50.34
14,-0.07,0.99,0.15,46.34
14,-0.11,0.99,0.11,46.34
14,-0.07,1.00,0.10,42.93
14,-0.07,1.00,0.11,40.83
14,-0.00,1.02,0.11,40.83
14,0.03,0.99,0.14,41.73
14,0.03,0.99,0.15,45.12
14,-0.06,0.98,0.15,44.91
14,-0.11,0.99,0.13,48.82
14,-0.11,0.94,0.10,43.04
14,-0.09,1.01,0.10,49.09
14,-0.00,1.02,0.11,49.09
14,-0.00,1.01,0.14,44.62
14,0.02,1.01,0.15,39.69
14,-0.03,0.99,0.15,39.69
14,-0.04,0.98,0.13,44.59
14,-0.11,0.98,0.11,39.26
14,-0.10,1.00,0.11,39.26
14,-0.03,1.02,0.11,45.75
14,-0.03,1.06,0.13,43.87
14,0.03,1.00,0.13,44.01
14,-0.01,0.99,0.16,41.66
14,-0.01,0.99,0.14,42.47
14,-0.08,0.99,0.14,50.30
14,-0.10,0.99,0.11,50.30
14,-0.11,1.02,0.11,45.80
14,-0.04,1.02,0.06,43.53
14,0.03,1.01,0.13,43.53
14,0.01,0.99,0.16,47.67
14,0.01,0.99,0.16,40.05
14,-0.08,0.99,0.16,40.60
14,-0.11,0.99,0.12,42.95
14,-0.11,0.95,0.10,48.78
14,-0.07,1.02,0.10,44.98
14,0.01,1.01,0.12,44.98
14,0.02,0.99,0.15,48.77
14,0.02,0.99,0.16,45.43
14,-0.06,0.99,0.16,45.43
14,-0.11,0.99,0.13,51.06
14,-0.11,0.99,0.10,43.29
14,-0.08,1.01,0.10,43.29
14,0.00,1.02,0.11,35.82
14,0.00,1.06,0.14,37.78
14,0.02,1.00,0.14,38.00
14,-0.04,0.99,0.16,44.27
14,-0.04,0.99,0.14,37.53
14,-0.10,0.99,0.14,45.62
14,-0.10,1.01,0.11,45.62
14,-0.08,1.01,0.10,40.65
14,-0.02,1.01,0.14,39.90
14,0.04,1.01,0.14,39.90
14,-0.02,0.98,0.16,45.89
14,-0.02,0.99,0.14,43.65
14,-0.09,0.99,0.14,43.43
14,-0.10,1.00,0.12,44.22
14,-0.10,1.02,0.09,42.93
14,-0.04,1.02,0.09,48.04
14,0.03,1.01,0.12,48.04
14,0.00,0.98,0.15,43.84
14,0.00,0.98,0.15,42.57
14,-0.08,0.98,0.15,42.57
14,-0.11,1.00,0.11,42.32
14,-0.11,1.00,0.09,41.88
14,-0.06,1.02,0.09,41.69
14,0.02,1.01,0.11,38.56
14,0.02,1.05,0.14,48.49
14,0.01,0.99,0.14,48.23
14,-0.06,0.99,0.15,48.23
14,-0.06,0.99,0.13,41.66
14,-0.11,0.99,0.16,42.40
14,-0.08,1.01,0.10,42.40
14,-0.12,1.02,0.11,39.56
14,0.01,1.02,0.14,45.21
14,0.02,0.99,0.14,45.21
14,-0.04,0.99,0.15,46.26
14,-0.04,0.99,0.13,40.33
14,-0.10,0.99,0.13,40.11
14,-0.10,1.00,0.11,41.67
14,-0.10,1.01,0.10,42.62
14,-0.01,1.01,0.10,43.04
14,0.03,1.00,0.14,43.04
14,0.05,0.98,0.17,39.21
14,-0.01,0.98,0.14,42.98
14,-0.09,0.99,0.14,42.98
14,-0.10,0.99,0.10,50.67
14,-0.10,0.99,0.10,37.48
14,-0.03,1.02,0.10,37.14
14,0.02,1.00,0.13,40.27
14,0.02,1.05,0.16,41.84
14,-0.01,0.98,0.16,44.37
14,-0.08,0.99,0.14,44.37
14,-0.10,1.00,0.11,44.93
14,-0.10,1.00,0.10,40.90
14,-0.05,1.01,0.10,40.90
14,0.02,1.01,0.13,44.20
14,0.02,1.01,0.16,41.14
14,0.01,0.99,0.16,41.14
14,-0.07,0.99,0.15,45.94
14,-0.07,1.00,0.12,41.89
14,-0.11,1.00,0.12,41.50
14,-0.07,1.01,0.10,46.20
14,-0.07,1.02,0.12,44.45
14,0.00,1.02,0.09,47.55
14,0.03,1.00,0.15,47.55
14,0.01,0.99,0.17,47.13
14,-0.05,0.99,0.13,49.43
14,-0.11,0.99,0.13,49.43
14,-0.09,1.01,0.10,51.03
14,-0.09,1.01,0.10,48.34
14,-0.01,1.01,0.10,48.30
14,0.03,1.00,0.14,46.73
14,0.03,0.99,0.16,44.55
14,-0.03,0.99,0.16,42.86
14,-0.10,0.99,0.14,42.86
14,-0.09,1.00,0.09,40.94
14,-0.09,1.00,0.10,42.66
14,-0.03,1.02,0.10,42.66
14,0.02,1.00,0.13,49.83
14,0.02,1.00,0.16,39.65
14,0.00,0.98,0.16,39.65
14,-0.09,0.99,0.15,47.48
14,-0.09,0.99,0.11,53.07
14,-0.10,0.99,0.11,46.96
14,-0.04,1.02,0.10,46.96
14,-0.04,1.01,0.12,41.19
14,0.02,1.01,0.08,45.11
14,0.01,0.99,0.15,45.11
14,0.06,0.99,0.14,37.74
14,-0.06,0.99,0.12,46.28
14,-0.11,0.99,0.12,46.28
14,-0.07,1.01,0.10,48.43
14,-0.07,1.02,0.11,42.69
14,0.01,1.02,0.11,42.58
14,0.02,0.99,0.15,45.72
14,0.02,0.99,0.15,49.88
14,-0.05,0.99,0.15,44.98
14,-0.11,0.98,0.13,44.98
14,-0.08,1.01,0.10,36.03
14,-0.08,1.01,0.11,46.62
14,-0.01,1.01,0.11,46.62
14,0.03,1.00,0.15,37.39
14,0.03,0.98,0.16,37.01
14,-0.03,0.98,0.16,37.22
14,-0.10,0.99,0.13,44.27
14,-0.10,1.00,0.10,41.73
14,-0.10,1.00,0.10,43.57
14,-0.02,1.02,0.10,43.57
15,0.03,1.01,0.13,42.56
15,0.01,0.98,0.15,42.56
15,0.05,0.98,0.15,43.51
15,-0.08,0.98,0.12,45.92
15,-0.11,0.99,0.12,45.92
15,-0.06,1.01,0.10,42.26
15,-0.06,1.01,0.11,57.42
15,0.02,1.01,0.11,57.69
15,0.01,0.99,0.16,45.94
15,0.01,0.98,0.16,43.69
15,-0.06,0.98,0.16,41.62
15,-0.11,0.99,0.12,41.62
15,-0.07,1.00,0.11,48.33
15,-0.07,1.00,0.11,40.64
15,-0.00,1.01,0.11,40.64
15,0.02,0.99,0.16,44.11
15,0.02,0.99,0.16,46.48
15,-0.03,0.99,0.16,46.63
15,-0.11,0.99,0.13,48.98
15,-0.11,0.94,0.10,47.99
15,-0.09,1.01,0.10,42.71
15,-0.01,1.02,0.10,42.71
15,-0.01,1.00,0.14,45.57
15,0.02,1.00,0.17,49.02
15,-0.01,0.99,0.17,49.02
15,-0.03,0.99,0.14,46.03
15,-0.09,0.99,0.11,47.72
15,-0.10,0.99,0.11,47.72
15,-0.04,1.01,0.10,43.31
15,-0.04,1.01,0.14,43.83
15,0.03,1.01,0.14,44.56
15,-0.00,0.98,0.15,39.86
15,-0.00,0.99,0.14,45.51
15,-0.08,0.99,0.14,43.05
15,-0.11,1.00,0.10,43.05
15,-0.12,1.02,0.10,41.32
15,-0.05,1.02,0.12,43.13
15,0.03,1.02,0.12,43.13
15,0.01,1.00,0.14,49.60
15,0.01,1.00,0.15,52.11
15,-0.07,0.99,0.15,52.05
15,-0.10,0.99,0.13,50.48
15,-0.10,1.00,0.11,42.07
15,-0.07,1.00,0.11,48.66
15,-0.01,1.01,0.10,48.66
15,-0.03,1.00,0.16,39.22
15,0.03,1.00,0.15,45.08
15,-0.04,0.99,0.15,45.08
15,-0.10,0.99,0.12,43.35
15,-0.10,0.99,0.11,41.13
15,-0.09,1.01,0.11,41.13
15,-0.01,1.01,0.11,43.51
15,-0.01,1.01,0.15,49.51
15,0.02,1.01,0.15,44.83
15,-0.02,0.98,0.16,44.83
15,-0.02,0.99,0.14,40.52
15,-0.09,0.99,0.17,44.91
15,-0.09,0.99,0.10,44.91
15,-0.10,1.02,0.11,51.19
15,-0.03,1.02,0.14,47.21
15,0.02,1.01,0.14,47.21
15,-0.01,0.98,0.15,39.35
15,-0.01,0.99,0.15,45.55
15,-0.09,0.99,0.15,45.98
15,-0.10,0.99,0.12,37.36
15,-0.10,1.01,0.11,44.16
15,-0.05,1.01,0.11,43.30
15,0.02,1.00,0.13,43.30
15,0.01,0.99,0.15,56.64
15,0.01,0.99,0.16,44.62
15,-0.06,0.98,0.16,44.62
15,-0.11,0.99,0.12,43.37
15,-0.11,0.99,0.10,41.67
15,-0.07,1.00,0.10,41.55
15,0.01,1.02,0.12,46.25
15,0.01,1.00,0.15,51.23
15,0.02,1.00,0.15,44.22
15,-0.04,0.99,0.15,44.22
15,-0.04,0.98,0.13,47.51
15,-0.10,0.98,0.17,45.65
15,-0.08,1.01,0.11,45.65
15,-0.00,1.02,0.11,42.73
15,-0.00,1.02,0.14,44.89
15,0.02,1.00,0.14,44.89
15,-0.03,0.99,0.15,42.52
15,-0.03,0.99,0.13,40.53
15,-0.10,0.99,0.13,40.63
15,-0.09,1.01,0.10,42.19
15,-0.09,1.02,0.11,50.07
15,-0.02,1.02,0.06,48.07
15,0.02,1.00,0.13,48.07
15,0.05,0.98,0.16,47.11
15,-0.01,0.98,0.14,45.96
15,-0.09,0.98,0.14,45.96
15,-0.10,1.00,0.13,47.84
15,-0.10,0.96,0.11,50.34
15,-0.05,1.02,0.11,50.17
15,0.01,1.02,0.13,47.04
15,0.01,0.99,0.16,46.32
15,0.00,0.99,0.16,39.06
15,-0.08,0.99,0.16,39.06
15,-0.11,0.99,0.12,52.27
15,-0.11,0.99,0.10,48.63
15,-0.06,1.01,0.10,48.63
15,0.01,1.01,0.13,46.55
15,0.01,1.01,0.16,36.54
15,0.01,1.00,0.16,36.44
15,-0.05,0.98,0.15,46.62
15,-0.05,0.98,0.12,47.15
15,-0.10,0.98,0.12,44.70
15,-0.08,1.01,0.11,44.70
15,-0.08,1.02,0.11,43.73
15,0.01,1.02,0.08,44.24
15,0.03,1.00,0.15,44.24
15,0.03,0.99,0.16,45.48
15,-0.03,0.99,0.13,38.41
15,-0.09,0.99,0.13,38.41
15,-0.09,1.01,0.10,47.35
15,-0.09,1.01,0.11,44.80
15,-0.02,1.01,0.11,45.10
15,0.03,1.01,0.14,45.10
15,0.03,0.99,0.16,42.89
15,-0.02,0.99,0.16,38.89
15,-0.09,0.99,0.14,38.89
15,-0.10,1.00,0.11,46.15
15,-0.10,1.00,0.11,40.85
15,-0.03,1.01,0.11,40.85
15,0.03,1.01,0.12,40.94
15,0.03,1.01,0.16,48.19
15,-0.00,0.98,0.16,48.04
15,-0.07,0.99,0.15,51.17
15,-0.07,0.99,0.12,46.16
15,-0.11,0.99,0.12,45.94
15,-0.06,1.01,0.10,45.94
15,-0.05,1.00,0.12,40.91
15,0.02,1.00,0.10,44.87
15,0.01,0.99,0.16,44.87
15,-0.06,0.98,0.15,43.10
15,-0.06,0.98,0.12,39.97
15,-0.11,0.99,0.12,39.97
15,-0.08,1.01,0.11,47.57
15,-0.08,1.01,0.11,50.06
15,0.00,1.01,0.11,49.86
15,0.03,1.00,0.14,46.73
15,0.03,0.99,0.16,42.56
15,-0.05,0.99,0.14,37.51
15,-0.10,0.99,0.14,37.51
15,-0.09,1.01,0.11,41.16
15,-0.09,1.01,0.10,51.98
15,-0.01,1.02,0.10,51.98
15,0.03,1.01,0.13,40.14
15,0.03,1.05,0.15,39.00
15,-0.02,0.98,0.15,38.82
15,-0.09,0.99,0.14,37.25
15,-0.09,0.99,0.11,46.08
15,-0.10,0.99,0.11,45.66
15,-0.04,1.02,0.12,45.66
15,-0.04,1.01,0.13,54.20
15,0.02,1.01,0.15,44.07
15,-0.00,0.99,0.15,44.07
15,-0.08,0.99,0.14,42.19
15,-0.08,0.99,0.11,46.81
15,-0.10,1.00,0.11,46.72
15,-0.06,1.01,0.09,46.72
15,-0.06,1.02,0.12,38.51
15,0.02,1.02,0.12,40.40
15,0.01,0.98,0.15,40.40
15,0.01,0.99,0.14,44.21
15,-0.06,0.99,0.18,41.87
15,-0.11,0.99,0.12,41.87
15,-0.07,1.01,0.10,34.23
15,-0.07,1.01,0.11,40.98
15,0.01,1.01,0.11,40.98
15,0.02,0.99,0.15,37.76
15,0.02,0.99,0.16,42.85
15,-0.04,0.99,0.16,42.37
15,-0.11,0.99,0.14,47.85
15,-0.11,1.01,0.10,39.22
15,-0.09,1.01,0.10,40.55
15,-0.02,1.01,0.11,40.55
15,-0.03,1.00,0.14,39.24
15,0.03,1.00,0.16,45.41
15,-0.02,0.99,0.16,45.41
15,-0.10,0.98,0.14,43.96
15,-0.10,0.98,0.10,54.47
15,-0.09,1.00,0.10,54.23
15,-0.03,1.02,0.10,44.83
15,-0.03,1.00,0.14,45.78
15,0.03,1.00,0.14,46.13
15,-0.01,0.99,0.16,46.13
15,-0.03,0.98,0.14,50.24
15,-0.09,0.98,0.17,49.65
15,-0.10,0.99,0.11,49.65
15,-0.05,1.01,0.10,48.53
15,-0.05,1.01,0.11,47.95
15,0.03,1.01,0.11,47.95
15,0.01,0.99,0.16,49.61
15,0.01,0.99,0.15,49.17
15,-0.08,0.99,0.15,49.11
15,-0.11,0.99,0.12,48.33
15,-0.11,1.01,0.11,47.08
15,-0.07,1.01,0.11,48.29
15,0.01,1.02,0.11,48.29
15,0.02,0.99,0.15,39.40
15,0.02,0.99,0.15,53.92
15,-0.05,0.99,0.15,53.92
15,-0.10,0.99,0.12,46.52
15,-0.10,0.94,0.10,39.34
15,-0.08,1.01,0.10,39.42
15,-0.01,1.02,0.11,39.42
15,-0.01,1.00,0.14,43.57
15,0.02,1.00,0.14,47.25
15,-0.03,0.99,0.14,47.25
15,-0.03,0.99,0.15,39.70
15,-0.09,0.99,0.17,44.68
15,-0.09,1.01,0.10,44.68
15,-0.02,1.02,0.11,47.96
15,-0.02,1.02,0.14,45.68
15,0.03,1.01,0.14,45.99
15,-0.01,0.99,0.16,38.94
15,-0.01,0.99,0.14,41.66
15,-0.08,0.99,0.14,41.89
15,-0.10,0.99,0.11,41.89
15,-0.10,1.02,0.11,42.81
15,-0.05,1.02,0.06,43.10
15,0.02,1.01,0.13,43.10
15,0.06,0.99,0.16,43.29
15,-0.00,0.99,0.15,41.07
15,-0.07,0.99,0.15,41.07
15,-0.11,0.98,0.12,44.68
15,-0.11,0.95,0.11,49.07
15,-0.07,1.01,0.11,48.60
16,0.00,1.00,0.14,51.52
16,0.01,1.00,0.14,52.16
16,-0.04,0.98,0.15,52.16
16,-0.04,0.99,0.14,48.08
16,-0.10,0.99,0.16,49.87
16,-0.09,1.00,0.10,49.87
16,-0.02,1.02,0.11,41.55
16,-0.02,1.02,0.14,41.83
16,0.02,1.01,0.14,42.06
16,-0.02,0.98,0.16,35.01
16,-0.02,0.99,0.14,41.07
16,-0.09,0.99,0.14,43.31
16,-0.10,1.00,0.11,43.31
16,-0.10,1.01,0.11,43.34
16,-0.03,1.01,0.07,40.17
16,0.02,1.01,0.13,40.17
16,0.00,0.99,0.16,45.84
16,0.00,0.99,0.15,46.32
16,-0.08,0.99,0.15,46.32
16,-0.11,0.99,0.12,40.82
16,-0.11,0.95,0.10,51.52
16,-0.06,1.02,0.10,50.99
16,0.01,1.01,0.12,51.77
16,0.01,1.00,0.15,48.73
16,0.02,1.00,0.15,49.47
16,-0.06,0.99,0.14,49.47
16,-0.05,0.99,0.13,48.86
16,-0.11,0.99,0.17,44.61
16,-0.07,1.01,0.10,44.61
16,0.00,1.01,0.12,49.47
16,0.00,1.01,0.15,46.51
16,0.02,0.99,0.15,46.79
16,-0.04,0.99,0.15,44.44
16,-0.04,1.00,0.13,48.06
16,-0.10,1.00,0.13,45.37
16,-0.08,1.01,0.11,45.37
16,-0.08,1.02,0.11,41.68
16,-0.02,1.02,0.07,39.26
16,0.02,1.01,0.14,39.26
16,-0.02,0.98,0.15,46.04
16,-0.02,0.98,0.14,43.73
16,-0.09,0.99,0.14,43.73
16,-0.10,0.99,0.10,49.23
16,-0.10,0.95,0.11,42.94
16,-0.04,1.02,0.11,43.00
16,0.02,1.01,0.13,42.21
16,0.02,1.00,0.16,47.41
16,0.00,1.00,0.16,39.15
16,-0.08,0.99,0.15,39.15
16,-0.10,0.99,0.10,38.54
16,-0.10,0.99,0.11,50.79
16,-0.04,1.02,0.11,50.79
16,0.02,1.01,0.13,43.58
16,0.02,1.05,0.16,45.69
16,0.01,0.99,0.16,45.56
16,-0.05,0.99,0.15,47.12
16,-0.05,0.99,0.11,41.93
16,-0.10,0.99,0.11,38.41
16,-0.08,1.01,0.10,38.41
16,-0.11,1.01,0.12,45.18
16,0.01,1.01,0.08,44.11
16,0.01,1.00,0.14,44.11
16,-0.04,0.98,0.14,47.87
16,-0.04,0.98,0.13,46.01
16,-0.11,0.98,0.13,46.01
16,-0.09,1.00,0.10,46.25
16,-0.09,1.02,0.11,47.24
16,-0.02,1.02,0.11,41.55
16,0.02,1.00,0.14,41.55
16,0.02,0.98,0.15,42.20
16,-0.03,0.98,0.13,45.15
16,-0.09,0.98,0.13,45.15
16,-0.10,1.00,0.11,48.87
16,-0.10,1.00,0.11,45.59
16,-0.02,1.01,0.11,45.59
16,0.03,1.00,0.12,49.00
16,0.03,1.05,0.16,39.66
16,-0.01,0.99,0.16,39.21
16,-0.08,0.98,0.15,39.99
16,-0.08,0.99,0.11,41.59
16,-0.11,0.99,0.11,46.71
16,-0.05,1.01,0.10,46.71
16,-0.04,1.01,0.13,51.64
16,0.02,1.01,0.16,46.78
16,0.01,1.00,0.16,46.78
16,-0.07,0.99,0.14,44.16
16,-0.07,0.99,0.12,44.02
16,-0.11,0.99,0.12,44.57
16,-0.06,1.01,0.11,42.22
16,-0.06,1.01,0.11,43.43
16,0.01,1.01,0.11,46.87
16,0.02,0.99,0.14,46.87
16,0.02,0.99,0.14,43.74
16,-0.05,0.99,0.18,45.21
16,-0.10,0.99,0.12,45.21
16,-0.08,1.02,0.10,47.00
16,-0.08,1.02,0.11,44.27
16,-0.01,1.01,0.11,44.27
16,0.03,1.00,0.14,36.84
16,0.03,0.98,0.16,39.94
16,-0.03,0.98,0.16,40.02
16,-0.10,0.98,0.14,40.02
16,-0.10,1.00,0.11,41.34
16,-0.10,1.00,0.11,40.48
16,-0.02,1.01,0.11,40.48
16,-0.05,1.00,0.14,41.90
16,0.02,1.00,0.16,43.10
16,-0.02,0.99,0.16,43.10
16,-0.08,0.99,0.13,52.50
16,-0.08,1.00,0.10,51.66
16,-0.10,1.00,0.10,51.80
16,-0.04,1.01,0.11,52.59
16,-0.04,1.01,0.13,47.61
16,0.02,1.01,0.13,45.75
16,-0.00,0.99,0.16,45.75
16,-0.01,0.99,0.14,48.34
16,-0.07,0.99,0.18,42.15
16,-0.11,0.99,0.12,42.15
16,-0.05,1.01,0.11,43.91
16,-0.05,1.01,0.12,42.87
16,0.00,1.02,0.12,42.87
16,0.01,0.98,0.15,44.67
16,0.01,0.99,0.16,43.46
16,-0.06,0.99,0.16,50.10
16,-0.10,0.99,0.12,50.10
16,-0.10,1.01,0.10,46.57
16,-0.07,1.01,0.12,43.23
16,-0.01,1.02,0.12,43.23
16,-0.04,0.99,0.14,41.90
16,0.02,0.99,0.15,43.83
16,-0.04,0.99,0.15,43.83
16,-0.10,0.99,0.13,44.27
16,-0.10,1.00,0.10,42.07
16,-0.09,1.00,0.10,41.89
16,-0.02,1.02,0.11,41.89
16,-0.02,1.00,0.14,42.99
16,0.02,1.00,0.14,42.29
16,-0.02,0.99,0.15,42.29
16,-0.03,0.99,0.13,48.83
16,-0.09,0.99,0.18,44.15
16,-0.10,1.00,0.11,44.15
16,-0.04,1.01,0.11,40.18
16,-0.04,1.01,0.13,45.14
16,0.03,1.01,0.13,44.66
16,0.00,0.98,0.16,43.09
16,0.00,0.99,0.14,43.37
16,-0.07,0.99,0.14,46.25
16,-0.11,0.99,0.11,46.25
16,-0.11,1.02,0.11,50.49
16,-0.04,1.02,0.07,42.18
16,0.01,1.01,0.13,42.18
16,0.01,0.99,0.15,44.34
16,0.01,0.99,0.14,39.85
16,-0.05,1.00,0.14,39.85
16,-0.11,0.99,0.12,40.65
16,-0.11,0.95,0.10,49.74
16,-0.07,1.01,0.10,49.45
16,0.01,1.02,0.13,43.96
16,0.01,1.00,0.14,45.17
16,0.02,1.00,0.14,41.82
16,-0.05,0.99,0.14,41.82
16,-0.03,0.98,0.12,42.24
16,-0.10,0.98,0.10,39.08
16,-0.09,1.00,0.10,39.08
16,-0.01,1.02,0.11,45.10
16,-0.01,1.06,0.13,46.43
16,0.03,1.00,0.13,46.42
16,-0.02,0.99,0.15,44.85
16,-0.02,0.99,0.13,46.39
16,-0.10,0.99,0.13,44.24
16,-0.08,1.00,0.11,44.24
16,-0.09,1.02,0.10,47.68
16,-0.03,1.02,0.07,41.32
16,0.02,1.00,0.13,41.32
16,-0.01,1.00,0.15,41.81
16,-0.01,1.00,0.15,48.12
16,-0.09,0.98,0.15,48.12
16,-0.10,1.00,0.10,52.92
16,-0.10,0.95,0.11,43.97
16,-0.06,1.01,0.11,45.56
16,0.02,1.01,0.13,45.56
16,0.02,0.99,0.15,40.93
16,0.01,0.99,0.15,48.07
16,-0.07,0.99,0.15,48.07
16,-0.11,0.99,0.13,43.94
16,-0.11,0.99,0.11,49.20
16,-0.07,1.01,0.11,49.20
16,-0.00,1.01,0.12,43.05
16,-0.00,1.05,0.14,43.57
16,0.02,0.99,0.14,43.27
16,-0.05,0.99,0.15,48.75
16,-0.05,0.99,0.13,50.74
16,-0.10,0.99,0.13,37.90
16,-0.08,1.01,0.11,37.90
16,-0.08,1.01,0.11,44.35
16,-0.01,1.01,0.09,44.74
16,0.02,1.00,0.15,44.74
16,-0.04,0.99,0.15,40.65
16,-0.04,0.99,0.14,44.29
16,-0.09,0.99,0.14,44.19
16,-0.09,1.00,0.10,39.49
16,-0.09,1.02,0.11,47.28
16,-0.02,1.02,0.11,45.18
16,0.02,1.01,0.14,45.18
16,0.04,0.99,0.16,39.71
16,-0.02,0.99,0.14,43.41
16,-0.08,1.00,0.14,43.41
16,-0.10,0.99,0.11,50.82
16,-0.10,0.99,0.11,45.78
16,-0.05,1.01,0.11,45.78
16,0.02,1.01,0.13,50.11
16,0.02,1.06,0.15,51.82
16,0.00,0.99,0.15,52.00
16,-0.07,0.99,0.15,42.59
16,-0.07,1.00,0.11,40.68
16,-0.10,1.00,0.10,39.22
16,-0.06,1.01,0.10,39.22
16,-0.06,1.00,0.12,45.89
16,0.01,1.00,0.15,40.89
16,0.01,1.00,0.15,40.89
16,-0.05,1.00,0.15,43.33
16,-0.05,0.99,0.12,49.67
16,-0.10,0.99,0.12,49.85
16,-0.08,1.01,0.10,38.88
16,-0.08,1.01,0.11,43.75
16,-0.01,1.01,0.11,41.75
16,0.03,1.00,0.14,41.75
16,0.03,0.99,0.15,43.31
16,-0.04,0.99,0.13,44.76
16,-0.10,0.99,0.13,44.76
16,-0.10,1.01,0.10,40.39
16,-0.10,1.01,0.11,43.66
16,-0.02,1.01,0.11,43.61
17,0.01,1.06,0.16,42.86
17,0.00,1.00,0.16,46.25
17,-0.07,0.99,0.15,46.25
17,-0.07,1.00,0.12,40.84
17,-0.10,1.00,0.11,44.33
17,-0.06,1.01,0.11,44.33
17,-0.12,1.01,0.12,52.26
17,0.01,1.01,0.15,41.21
17,0.01,1.00,0.15,41.21
17,-0.06,0.98,0.15,41.94
17,-0.06,0.99,0.11,39.92
17,-0.10,0.99,0.11,40.56
17,-0.08,1.01,0.10,41.35
17,-0.08,1.01,0.11,42.51
17,-0.00,1.01,0.11,45.51
17,0.02,1.00,0.15,45.51
17,0.03,0.99,0.15,41.87
17,-0.04,0.99,0.13,46.60
17,-0.09,0.99,0.13,46.60
17,-0.08,1.01,0.09,37.76
17,-0.08,1.01,0.11,38.58
17,-0.02,1.01,0.11,38.60
17,0.01,1.00,0.13,51.14
17,0.01,0.99,0.15,41.24
17,-0.02,0.99,0.15,45.94
17,-0.09,0.99,0.14,45.94
17,-0.10,1.00,0.11,39.92
17,-0.10,1.00,0.10,39.42
17,-0.03,1.01,0.10,39.42
17,0.02,1.01,0.12,44.16
17,0.02,1.01,0.16,47.73
17,-0.00,0.99,0.16,47.73
17,-0.07,0.99,0.13,44.61
17,-0.07,0.99,0.12,40.96
17,-0.11,0.99,0.12,40.75
17,-0.05,1.02,0.10,42.32
17,-0.05,1.01,0.12,46.45
17,0.01,1.01,0.09,42.95
17,0.01,0.99,0.15,42.95
17,0.06,0.99,0.15,38.83
17,-0.06,0.99,0.12,44.74
17,-0.10,0.99,0.12,44.74
17,-0.07,1.01,0.10,42.59
17,-0.07,1.01,0.11,45.37
17,0.00,1.01,0.11,45.61
17,0.01,1.00,0.14,43.26
17,0.01,1.00,0.15,46.29
17,-0.03,1.00,0.15,52.29
17,-0.10,0.99,0.13,52.29
17,-0.09,1.00,0.11,43.98
17,-0.09,1.00,0.11,44.26
17,-0.01,1.01,0.11,44.26
17,0.03,1.00,0.14,37.93
17,0.03,1.00,0.16,42.01
17,-0.02,0.98,0.16,41.89
17,-0.09,0.99,0.14,50.51
17,-0.09,1.00,0.10,46.69
17,-0.10,1.00,0.10,45.76
17,-0.03,1.01,0.11,45.76
17,-0.03,1.00,0.12,43.62
17,0.02,1.00,0.10,42.67
17,-0.02,0.99,0.16,42.67
17,-0.02,1.00,0.15,42.24
17,-0.08,1.00,0.12,41.49
17,-0.10,0.99,0.12,41.49
17,-0.05,1.02,0.10,46.36
17,-0.05,1.00,0.13,37.97
17,0.01,1.00,0.13,38.30
17,0.01,0.99,0.15,40.65
17,0.01,0.99,0.15,48.74
17,-0.07,0.99,0.15,43.69
17,-0.10,0.99,0.12,43.69
17,-0.07,1.01,0.11,52.03
17,-0.07,1.01,0.12,41.48
17,0.00,1.01,0.12,41.48
17,0.02,0.99,0.16,36.57
17,0.02,0.99,0.15,42.94
17,-0.05,0.99,0.15,42.96
17,-0.09,0.98,0.13,49.23
17,-0.09,0.95,0.11,43.19
17,-0.09,1.01,0.11,50.23
17,-0.01,1.01,0.12,50.23
17,-0.04,1.01,0.14,46.66
17,0.02,1.01,0.16,45.34
17,-0.03,0.99,0.16,45.34
17,-0.08,0.99,0.13,50.94
17,-0.08,0.99,0.11,41.55
17,-0.09,1.00,0.11,41.55
17,-0.03,1.01,0.11,50.07
17,-0.03,1.01,0.12,43.48
17,0.03,1.01,0.12,43.75
17,-0.02,0.99,0.16,42.18
17,-0.02,1.00,0.15,44.20
17,-0.08,1.00,0.15,58.19
17,-0.10,0.99,0.11,58.19
17,-0.10,1.01,0.11,48.29
17,-0.04,1.01,0.12,44.07
17,0.02,1.02,0.12,44.07
17,-0.01,0.98,0.16,55.58
17,-0.01,0.99,0.14,43.76
17,-0.06,0.99,0.14,43.43
17,-0.10,1.00,0.11,48.91
17,-0.10,1.01,0.11,44.99
17,-0.07,1.01,0.11,44.08
17,0.01,1.00,0.12,44.08
17,0.01,1.00,0.14,43.09
17,0.01,1.00,0.15,45.45
17,-0.05,0.99,0.15,45.45
17,-0.10,0.99,0.13,44.41
17,-0.10,0.99,0.11,39.84
17,-0.07,1.01,0.11,39.84
17,-0.01,1.01,0.11,48.46
17,-0.01,1.05,0.15,44.58
17,0.01,0.99,0.15,40.36
17,-0.03,0.98,0.16,40.36
17,-0.03,0.99,0.12,41.90
17,-0.10,0.99,0.10,41.11
17,-0.09,1.00,0.10,41.11
17,-0.08,1.01,0.11,45.50
17,-0.02,1.01,0.13,42.01
17,0.02,1.01,0.13,42.01
17,-0.02,0.99,0.15,44.31
17,-0.02,0.99,0.14,44.12
17,-0.08,0.99,0.14,43.85
17,-0.10,1.00,0.12,43.06
17,-0.10,1.01,0.11,41.43
17,-0.03,1.01,0.11,43.65
17,0.02,1.01,0.12,43.65
17,0.06,0.99,0.15,41.61
17,-0.00,0.99,0.15,43.97
17,-0.08,0.99,0.15,43.97
17,-0.10,1.00,0.12,41.41
17,-0.10,1.00,0.10,50.90
17,-0.05,1.01,0.10,50.87
17,0.02,1.01,0.12,46.95
17,0.02,1.05,0.15,47.23
17,0.00,0.99,0.15,41.64
17,-0.06,0.98,0.14,41.64
17,-0.06,0.99,0.12,41.52
17,-0.10,0.99,0.10,55.78
17,-0.08,1.01,0.10,55.78
17,0.00,1.02,0.12,41.61
17,0.00,1.02,0.15,44.07
17,0.02,0.99,0.15,44.07
17,-0.04,0.99,0.16,50.37
17,-0.04,0.99,0.12,49.90
17,-0.10,0.99,0.12,49.39
17,-0.08,1.01,0.10,43.90
17,-0.08,1.01,0.10,46.32
17,-0.02,1.01,0.10,39.10
17,0.02,1.00,0.13,39.10
17,0.04,0.99,0.15,49.26
17,-0.03,0.99,0.14,42.95
17,-0.08,1.00,0.14,42.95
17,-0.10,1.00,0.11,40.61
17,-0.10,0.95,0.11,46.22
17,-0.04,1.02,0.11,46.35
17,0.02,1.01,0.14,47.13
17,0.02,0.99,0.15,46.65
17,-0.01,0.99,0.15,46.13
17,-0.07,1.00,0.14,46.13
17,-0.10,0.99,0.11,41.84
17,-0.10,0.99,0.11,42.62
17,-0.05,1.02,0.11,42.62
17,0.02,1.01,0.12,41.50
17,0.02,1.01,0.15,44.04
17,0.00,1.00,0.15,44.05
17,-0.07,0.98,0.15,57.37
17,-0.07,0.99,0.12,42.72
17,-0.11,0.99,0.12,44.11
17,-0.07,1.01,0.11,44.11
17,-0.07,1.00,0.12,44.82
17,0.00,1.00,0.09,40.45
17,0.02,0.99,0.15,40.45
17,0.02,0.99,0.15,44.02
17,-0.04,0.99,0.12,50.67
17,-0.10,0.99,0.12,50.67
17,-0.08,1.01,0.11,44.48
17,-0.08,1.01,0.11,43.04
17,-0.01,1.01,0.11,43.48
17,0.02,1.01,0.14,38.78
17,0.02,0.98,0.15,46.26
17,-0.02,0.98,0.15,47.32
17,-0.09,0.99,0.14,47.32
17,-0.09,0.99,0.11,43.90
17,-0.09,0.99,0.10,46.93
17,-0.03,1.01,0.10,46.93
17,0.02,1.01,0.14,38.34
17,0.02,1.01,0.16,45.25
17,-0.01,0.99,0.16,44.65
17,-0.08,0.98,0.14,38.39
17,-0.08,1.00,0.11,43.70
17,-0.10,1.00,0.11,45.12
17,-0.04,1.01,0.11,45.12
17,-0.05,1.01,0.12,49.34
17,0.01,1.01,0.09,47.30
17,-0.00,0.99,0.15,47.30
17,-0.06,0.99,0.14,43.39
17,-0.06,0.99,0.11,49.37
17,-0.09,1.00,0.11,49.37
17,-0.06,1.01,0.09,48.27
17,-0.06,1.01,0.12,44.68
17,0.00,1.01,0.12,45.17
17,0.01,0.99,0.15,40.47
17,0.01,0.99,0.15,49.65
17,-0.05,0.99,0.15,48.12
17,-0.10,0.99,0.11,48.12
17,-0.08,1.00,0.10,41.80
17,-0.08,1.00,0.11,41.29
17,-0.01,1.01,0.11,41.29
17,0.01,1.00,0.13,41.92
17,0.01,1.05,0.15,39.09
17,-0.03,0.99,0.15,38.63
17,-0.09,0.99,0.14,36.28
17,-0.09,1.01,0.10,42.48
17,-0.10,1.01,0.10,48.97
17,-0.03,1.01,0.11,48.97
17,-0.05,1.01,0.13,48.42
17,0.01,1.01,0.15,44.71
17,-0.02,0.98,0.15,44.71
17,-0.09,0.99,0.13,47.06
17,-0.09,0.99,0.11,45.49
17,-0.10,1.00,0.11,45.80
17,-0.04,1.01,0.11,44.24
17,-0.04,1.01,0.13,37.54
17,0.01,1.01,0.13,42.17
17,-0.00,0.99,0.16,42.17
17,-0.00,0.99,0.14,38.16
17,-0.07,0.99,0.19,46.66
17,-0.09,1.00,0.12,46.66
17,-0.12,1.01,0.11,51.90
17,-0.06,1.01,0.13,39.52
17,-0.00,1.01,0.13,39.52
18,0.02,1.00,0.16,45.13
18,-0.04,1.00,0.16,45.02
18,-0.10,0.99,0.13,41.88
18,-0.10,0.94,0.11,43.04
18,-0.08,1.01,0.11,47.37
18,-0.02,1.02,0.11,47.37
18,-0.02,1.00,0.13,40.54
18,0.02,1.00,0.17,43.51
18,-0.03,0.99,0.17,43.51
18,-0.08,0.99,0.14,48.80
18,-0.08,0.99,0.11,48.87
18,-0.09,1.00,0.11,48.87
18,-0.03,1.01,0.10,47.78
18,-0.03,1.00,0.13,44.04
18,0.02,1.00,0.13,43.83
18,-0.00,0.99,0.15,48.53
18,-0.00,0.99,0.15,52.36
18,-0.08,0.99,0.15,44.21
18,-0.10,1.00,0.11,44.21
18,-0.11,1.01,0.10,44.57
18,-0.05,1.01,0.07,42.78
18,0.01,1.01,0.13,42.78
18,0.01,0.99,0.15,47.00
18,0.01,0.99,0.15,47.56
18,-0.06,0.99,0.15,47.24
18,-0.10,0.99,0.13,45.68
18,-0.10,1.01,0.10,46.07
18,-0.08,1.01,0.10,41.50
18,-0.00,1.01,0.12,41.50
18,-0.05,0.99,0.15,40.81
18,0.01,0.99,0.14,45.48
18,-0.04,0.99,0.14,45.48
18,-0.10,0.99,0.13,44.91
18,-0.10,0.99,0.11,40.73
18,-0.09,1.01,0.11,40.85
18,-0.02,1.01,0.12,45.55
18,-0.02,1.06,0.13,41.93
18,0.01,1.00,0.13,52.25
18,-0.01,0.99,0.15,52.25
18,-0.01,1.00,0.13,45.28
18,-0.08,1.00,0.17,50.27
18,-0.09,1.00,0.11,50.27
18,-0.10,1.01,0.12,45.78
18,-0.04,1.01,0.13,51.32
18,0.02,1.00,0.13,51.32
18,-0.01,1.00,0.16,45.79
18,-0.01,0.99,0.14,49.40
18,-0.08,0.99,0.14,50.03
18,-0.09,0.99,0.11,45.33
18,-0.09,1.01,0.10,42.17
18,-0.05,1.01,0.10,41.41
18,0.01,1.01,0.12,41.41
18,0.00,0.98,0.16,52.40
18,0.00,0.98,0.15,42.03
18,-0.06,0.99,0.15,42.03
18,-0.10,0.99,0.12,45.16
18,-0.10,0.99,0.11,45.51
18,-0.06,1.01,0.11,45.80
18,0.00,1.01,0.11,45.80
18,0.00,1.06,0.14,39.71
18,0.02,1.00,0.14,39.62
18,-0.06,0.99,0.14,39.62
18,-0.03,0.99,0.12,43.11
18,-0.09,0.99,0.11,44.65
18,-0.08,1.00,0.11,44.65
18,-0.00,1.01,0.11,44.01
18,-0.00,1.01,0.14,44.37
18,0.02,1.01,0.14,44.37
18,-0.03,0.99,0.15,37.03
18,-0.03,0.99,0.14,40.60
18,-0.08,0.99,0.14,46.43
18,-0.10,0.99,0.11,46.43
18,-0.10,1.01,0.11,49.30
18,-0.03,1.01,0.12,51.70
18,0.02,1.00,0.12,51.70
18,0.05,0.99,0.15,53.80
18,-0.02,0.99,0.15,44.96
18,-0.08,0.99,0.15,44.96
18,-0.09,1.00,0.12,45.36
18,-0.09,0.95,0.12,38.60
18,-0.04,1.01,0.12,38.96
18,0.01,1.01,0.13,41.31
18,0.01,0.99,0.15,39.83
18,-0.00,0.99,0.15,41.54
18,-0.06,1.00,0.14,41.54
18,-0.10,0.99,0.11,42.59
18,-0.10,0.99,0.11,42.33
18,-0.05,1.00,0.11,42.33
18,0.00,1.01,0.12,45.18
18,0.00,1.01,0.14,41.02
18,0.00,0.99,0.14,41.11
18,-0.04,0.99,0.15,46.59
18,-0.04,0.99,0.12,44.62
18,-0.11,0.99,0.12,45.91
18,-0.07,1.00,0.10,45.91
18,-0.07,1.01,0.11,46.85
18,-0.01,1.01,0.08,42.10
18,0.02,1.00,0.14,42.10
18,-0.04,0.99,0.15,50.69
18,-0.04,0.99,0.12,41.53
18,-0.09,0.99,0.12,41.53
18,-0.08,1.00,0.11,40.16
18,-0.08,1.01,0.12,42.29
18,-0.02,1.01,0.12,42.77
18,0.02,1.00,0.14,35.72
18,0.02,0.99,0.15,37.13
18,-0.01,0.99,0.15,40.21
18,-0.08,0.99,0.15,40.21
18,-0.10,1.00,0.10,46.81
18,-0.10,1.00,0.11,41.67
18,-0.05,1.01,0.11,41.67
18,0.01,1.01,0.13,39.72
18,0.01,1.05,0.16,42.71
18,0.00,0.99,0.16,42.71
18,-0.07,0.99,0.13,41.14
18,-0.07,0.99,0.11,50.89
18,-0.10,0.99,0.11,44.50
18,-0.06,1.01,0.11,44.50
18,-0.06,1.01,0.12,46.11
18,0.00,1.01,0.09,45.64
18,0.01,1.00,0.15,45.64
18,-0.06,0.98,0.14,44.65
18,-0.06,0.98,0.12,47.70
18,-0.10,0.99,0.12,47.68
18,-0.08,1.01,0.11,47.68
18,-0.08,1.01,0.13,42.65
18,-0.00,1.01,0.13,45.06
18,0.02,1.00,0.14,45.06
18,0.02,0.99,0.15,38.99
18,-0.04,0.99,0.18,42.05
18,-0.10,0.99,0.12,42.05
18,-0.08,1.00,0.11,41.21
18,-0.08,1.00,0.12,36.31
18,-0.01,1.00,0.12,36.31
18,0.01,1.01,0.13,48.03
18,0.01,1.06,0.15,39.05
18,-0.02,1.00,0.15,38.97
18,-0.08,1.00,0.14,44.46
18,-0.08,1.00,0.12,45.72
18,-0.09,1.00,0.12,45.59
18,-0.03,1.02,0.12,45.59
18,-0.05,1.00,0.13,49.46
18,0.01,1.00,0.15,50.02
18,-0.00,0.99,0.15,50.02
18,-0.07,0.99,0.14,39.78
18,-0.07,0.99,0.12,44.40
18,-0.09,1.00,0.12,44.14
18,-0.05,1.01,0.11,46.49
18,-0.05,1.00,0.12,51.55
18,0.01,1.00,0.12,50.93
18,0.01,0.99,0.15,50.93
18,0.00,0.99,0.14,47.71
18,-0.06,0.99,0.18,40.76
18,-0.10,0.99,0.12,40.76
18,-0.07,1.00,0.11,43.00
18,-0.07,1.00,0.11,43.86
18,-0.00,1.01,0.11,43.86
18,0.01,1.00,0.14,44.50
18,0.01,0.99,0.14,44.88
18,-0.05,0.99,0.14,40.80
18,-0.09,0.99,0.12,40.80
18,-0.09,1.01,0.10,38.56
18,-0.09,1.01,0.11,45.59
18,-0.01,1.00,0.11,45.59
18,-0.05,0.99,0.14,46.08
18,0.01,0.99,0.15,45.78
18,-0.03,0.99,0.15,45.78
18,-0.10,0.99,0.13,43.86
18,-0.10,1.00,0.11,41.50
18,-0.10,1.00,0.11,41.62
18,-0.03,1.01,0.11,40.06
18,-0.03,1.00,0.13,42.37
18,0.02,1.00,0.13,42.84
18,-0.01,0.99,0.15,42.84
18,-0.01,1.00,0.15,48.50
18,-0.08,1.00,0.18,43.45
18,-0.10,0.99,0.12,43.45
18,-0.05,1.01,0.12,48.53
18,-0.05,1.01,0.13,47.93
18,0.01,1.01,0.13,48.37
18,0.00,0.99,0.15,46.02
18,0.00,0.99,0.14,41.64
18,-0.06,0.99,0.14,44.53
18,-0.10,1.00,0.11,44.53
18,-0.07,1.01,0.11,48.91
18,-0.07,1.01,0.11,43.72
18,0.00,1.00,0.11,43.72
18,0.01,0.99,0.15,33.30
18,0.01,0.99,0.15,40.57
18,-0.05,0.99,0.15,40.57
18,-0.09,0.99,0.11,58.58
18,-0.09,0.94,0.11,48.56
18,-0.08,1.01,0.11,48.97
18,-0.01,1.01,0.11,49.76
18,-0.01,0.99,0.14,46.69
18,0.02,0.99,0.14,48.35
18,-0.02,0.99,0.15,48.35
18,-0.03,0.99,0.13,41.90
18,-0.09,0.99,0.10,46.40
18,-0.09,1.01,0.10,46.40
18,-0.02,1.01,0.11,48.08
18,-0.02,1.00,0.13,47.30
18,0.01,1.00,0.13,47.11
18,-0.02,0.99,0.15,40.84
18,-0.02,1.00,0.14,38.97
18,-0.08,1.00,0.14,40.79
18,-0.09,1.00,0.11,40.79
18,-0.10,1.02,0.10,47.11
18,-0.04,1.02,0.12,43.64
18,0.02,1.01,0.12,43.64
18,0.00,1.00,0.15,39.27
18,0.00,1.00,0.15,38.19
18,-0.07,0.99,0.15,38.27
18,-0.10,1.00,0.11,40.62
18,-0.10,0.94,0.11,42.16
18,-0.06,1.01,0.11,42.08
18,0.00,1.01,0.13,42.08
18,0.00,1.00,0.14,45.46
18,0.01,1.00,0.15,42.89
18,-0.05,0.99,0.15,42.89
18,-0.03,0.99,0.11,45.96
18,-0.09,0.99,0.12,45.30
18,-0.09,1.01,0.12,45.30
18,-0.00,1.02,0.11,45.42
18,-0.00,1.00,0.15,40.88
18,0.02,1.00,0.15,41.18
18,-0.03,0.99,0.15,41.96
18,-0.03,1.00,0.12,48.83
18,-0.09,1.00,0.12,44.82
18,-0.08,1.00,0.11,44.82
18,-0.09,1.01,0.12,41.72
18,-0.03,1.01,0.08,40.44
18,0.01,1.01,0.14,40.44
19,-0.01,1.00,0.14,44.96
19,-0.07,0.99,0.14,44.72
19,-0.11,0.99,0.11,38.45
19,-0.11,0.96,0.10,43.96
19,-0.04,1.02,0.10,46.06
19,0.00,1.01,0.12,46.06
19,0.00,0.99,0.15,42.53
19,0.00,0.99,0.15,46.02
19,-0.06,0.99,0.15,46.02
19,-0.03,1.00,0.13,47.52
19,-0.10,1.00,0.10,41.37
19,-0.07,1.02,0.10,41.37
19,-0.01,1.01,0.13,43.38
19,-0.01,1.06,0.14,43.33
19,0.02,1.00,0.14,43.07
19,-0.04,0.99,0.14,43.07
19,-0.04,0.99,0.13,37.86
19,-0.09,0.99,0.13,46.63
19,-0.08,1.00,0.10,46.63
19,-0.08,1.00,0.11,47.20
19,-0.02,1.00,0.07,42.47
19,0.02,1.00,0.13,42.47
19,-0.03,0.99,0.15,40.55
19,-0.03,0.99,0.13,43.18
19,-0.09,0.99,0.13,43.07
19,-0.10,1.01,0.10,45.42
19,-0.10,1.00,0.11,49.02
19,-0.04,1.00,0.11,50.71
19,0.02,1.00,0.14,50.71
19,0.05,0.99,0.14,39.98
19,-0.01,0.99,0.14,46.27
19,-0.07,0.99,0.14,46.27
19,-0.09,1.00,0.12,43.39
19,-0.09,1.00,0.12,35.36
19,-0.05,1.01,0.12,35.36
19,0.01,1.01,0.13,37.46
19,0.01,1.05,0.14,43.84
19,0.00,0.99,0.14,44.13
19,-0.06,0.99,0.15,50.40
19,-0.06,0.99,0.12,45.87
19,-0.09,0.99,0.12,40.44
19,-0.06,1.01,0.11,40.44
19,-0.07,1.00,0.12,46.36
19,-0.00,1.00,0.14,46.61
19,0.00,1.00,0.14,46.61
19,-0.05,0.99,0.15,37.24
19,-0.05,0.99,0.12,46.69
19,-0.09,0.99,0.12,46.84
19,-0.08,1.00,0.11,48.41
19,-0.08,1.01,0.11,42.93
19,-0.01,1.01,0.11,46.16
19,0.02,1.00,0.14,46.16
19,0.03,0.99,0.15,44.77
19,-0.03,0.99,0.14,47.33
19,-0.08,1.00,0.14,47.33
19,-0.09,1.00,0.11,49.28
19,-0.09,1.00,0.10,49.32
19,-0.03,1.01,0.10,49.32
19,0.02,1.00,0.13,47.74
19,0.02,1.06,0.14,41.79
19,-0.02,0.99,0.14,46.18
19,-0.09,0.99,0.13,46.18
19,-0.09,1.00,0.10,46.40
19,-0.09,1.00,0.10,44.52
19,-0.04,1.02,0.10,44.52
19,-0.05,1.00,0.12,40.94
19,0.01,1.00,0.14,45.85
19,-0.00,0.99,0.14,45.85
19,-0.07,0.99,0.15,41.05
19,-0.07,0.99,0.12,48.53
19,-0.10,0.99,0.12,48.63
19,-0.06,1.01,0.11,43.15
19,-0.06,1.01,0.13,49.98
19,0.00,1.01,0.13,47.05
19,0.01,0.99,0.15,47.05
19,0.01,0.99,0.15,46.40
19,-0.05,0.99,0.13,44.50
19,-0.10,0.99,0.13,44.50
19,-0.08,1.01,0.10,41.41
19,-0.08,1.01,0.11,45.68
19,-0.02,1.01,0.11,46.06
19,0.01,1.00,0.13,43.71
19,0.01,1.00,0.15,50.33
19,-0.03,1.00,0.15,44.15
19,-0.09,0.98,0.13,44.15
19,-0.09,1.00,0.11,46.28
19,-0.08,1.00,0.11,39.72
19,-0.03,1.01,0.11,39.72
19,0.01,1.00,0.15,39.39
19,0.01,1.00,0.14,37.95
19,-0.02,0.99,0.14,37.95
19,-0.08,0.99,0.14,49.27
19,-0.08,1.00,0.11,48.96
19,-0.10,1.00,0.11,49.19
19,-0.05,1.01,0.11,39.00
19,-0.05,1.01,0.14,39.64
19,0.01,1.01,0.14,41.85
