seconds, accX, accY, accZ, temp
30,-0.05,0.99,0.12,42.63
30,-0.02,0.99,0.12,41.10
30,-0.01,1.00,0.13,41.10
30,-0.05,1.00,0.12,48.00
30,-0.05,1.00,0.12,46.47
30,-0.08,0.99,0.12,46.47
30,-0.06,1.01,0.12,46.46
30,-0.06,1.01,0.14,42.80
30,-0.03,1.01,0.14,42.50
30,-0.02,1.00,0.14,45.63
30,-0.02,1.00,0.13,43.85
30,-0.03,1.00,0.13,42.20
30,-0.08,1.00,0.12,42.20
30,-0.12,1.00,0.12,46.85
30,-0.06,1.00,0.07,44.09
30,-0.03,1.00,0.13,44.09
30,-0.02,1.00,0.14,45.52
30,-0.02,1.00,0.13,44.60
30,-0.03,0.99,0.13,44.60
30,-0.06,1.00,0.13,45.73
30,-0.06,1.00,0.12,41.92
30,-0.06,1.00,0.12,37.71
30,-0.04,1.01,0.13,37.71
30,-0.04,1.01,0.14,44.94
30,-0.01,1.01,0.14,44.52
30,-0.03,0.99,0.14,44.52
30,-0.06,1.00,0.12,45.64
30,-0.06,1.00,0.13,46.58
30,-0.07,0.99,0.13,46.58
30,-0.04,1.00,0.12,44.85
30,-0.04,1.00,0.12,45.59
30,-0.01,1.00,0.12,45.88
30,-0.02,1.00,0.14,45.09
30,-0.02,1.00,0.12,41.79
30,-0.05,1.00,0.12,47.89
30,-0.07,1.00,0.12,47.89
30,-0.12,1.00,0.12,40.63
30,-0.05,1.00,0.08,41.35
30,-0.03,1.00,0.14,41.35
30,-0.01,1.00,0.14,42.58
5,0.02,1.11,0.04,43.52
5,0.12,1.02,0.09,49.00
5,0.12,0.94,0.22,46.26
5,-0.02,0.94,0.22,39.90
5,-0.18,1.01,0.17,39.90
5,-0.15,0.92,0.12,46.33
5,-0.15,0.92,0.11,45.40
5,-0.02,1.08,0.05,45.40
5,0.14,1.05,0.08,47.80
5,0.14,1.05,0.17,42.08
5,0.02,0.94,0.17,41.83
5,-0.16,1.00,0.20,41.83
5,-0.16,0.93,0.13,46.97
5,-0.18,0.93,0.13,38.97
5,-0.05,1.02,0.07,38.97
5,-0.00,1.09,0.06,46.09
5,0.12,1.09,0.01,44.35
5,0.05,0.96,0.14,44.35
5,-0.11,0.97,0.22,40.94
5,-0.11,0.97,0.14,43.22
5,-0.18,0.97,0.14,43.39
5,-0.08,0.97,0.08,43.39
5,-0.08,0.99,0.05,43.67
5,0.09,1.11,0.05,44.48
5,0.08,0.97,0.11,44.48
5,0.08,0.95,0.23,48.41
5,-0.07,0.95,0.21,42.86
5,-0.18,1.01,0.14,42.86
5,-0.12,0.93,0.10,44.78
5,-0.12,0.93,0.04,44.31
5,0.04,1.12,0.04,44.31
5,0.11,1.00,0.09,45.17
5,0.11,1.00,0.22,44.32
5,-0.03,0.94,0.22,44.01
5,-0.18,1.01,0.17,45.58
5,-0.18,0.92,0.12,41.65
5,-0.16,0.92,0.12,49.01
5,-0.00,1.10,0.06,49.01
5,-0.00,1.03,0.08,44.06
5,0.12,1.03,0.19,48.12
5,0.02,0.94,0.19,48.12
5,-0.16,1.01,0.20,41.96
5,-0.16,1.06,0.13,43.56
5,-0.18,0.93,0.13,43.75
5,-0.04,1.06,0.08,40.62
5,-0.04,1.07,0.05,47.79
5,0.11,1.07,0.05,39.50
5,0.04,0.95,0.15,39.50
5,0.06,0.98,0.21,47.08
5,-0.13,0.98,0.21,43.94
5,-0.19,0.95,0.15,43.94
5,-0.07,1.00,0.08,45.75
5,-0.07,1.00,0.05,41.36
5,0.08,1.10,0.05,41.32
5,0.07,0.96,0.12,42.88
5,0.07,0.96,0.20,44.17
5,-0.09,0.96,0.20,41.15
5,-0.19,0.99,0.15,41.15
5,-0.19,0.95,0.09,43.64
5,-0.10,0.95,0.10,48.97
5,0.05,1.11,0.04,48.97
5,0.11,1.00,0.10,43.61
5,0.11,1.00,0.22,40.68
5,-0.04,0.94,0.22,40.68
5,-0.19,1.00,0.16,47.33
5,-0.19,1.05,0.11,44.00
5,-0.13,0.93,0.11,44.40
5,0.00,1.09,0.05,45.97
5,0.00,1.03,0.08,40.88
5,0.13,1.03,0.07,45.18
5,0.00,0.94,0.19,45.18
5,0.01,1.00,0.19,43.94
5,-0.17,1.00,0.12,39.98
5,-0.16,0.93,0.12,39.98
5,-0.04,1.05,0.07,49.97
5,-0.04,1.01,0.07,43.63
5,0.13,1.07,0.07,43.05
5,0.03,0.96,0.16,44.62
5,0.03,0.99,0.22,41.89
5,-0.14,0.99,0.22,44.73
5,-0.17,0.95,0.13,44.73
5,-0.14,1.01,0.07,45.88
5,-0.07,1.01,0.12,48.90
5,0.09,1.10,0.05,48.90
5,0.06,0.96,0.13,46.79
5,0.06,0.96,0.21,41.66
5,-0.10,0.95,0.21,42.23
5,-0.18,0.98,0.13,43.01
5,-0.18,0.96,0.09,45.15
5,-0.10,0.96,0.09,43.10
5,0.06,1.11,0.05,43.10
5,0.03,1.00,0.11,42.37
5,0.10,1.00,0.09,45.06
5,-0.06,0.94,0.22,45.06
5,-0.17,1.01,0.16,43.20
5,-0.17,1.01,0.11,40.18
5,-0.13,0.92,0.11,40.59
5,0.02,1.11,0.05,45.29
5,0.02,1.09,0.09,41.18
5,0.13,1.03,0.09,46.14
5,-0.01,0.94,0.20,46.14
5,-0.01,1.02,0.18,46.03
5,-0.18,1.02,0.13,43.65
5,-0.16,0.92,0.13,43.65
5,-0.13,1.07,0.05,44.34
5,-0.01,1.07,0.07,43.31
6,0.11,0.96,0.13,43.73
6,0.05,0.96,0.15,45.62
6,-0.10,0.97,0.22,45.62
6,-0.19,0.98,0.14,43.26
6,-0.19,0.98,0.09,44.03
6,-0.08,0.98,0.09,44.25
6,0.07,1.11,0.05,45.82
6,0.07,1.10,0.11,42.07
6,0.09,0.98,0.11,44.79
6,-0.06,0.95,0.21,44.79
6,-0.12,1.01,0.16,42.03
6,-0.19,1.01,0.16,44.55
6,-0.11,0.94,0.10,44.55
6,0.02,1.11,0.04,44.28
6,0.02,1.11,0.09,38.86
6,0.12,1.01,0.09,38.86
6,-0.02,0.93,0.21,47.06
6,-0.02,0.94,0.17,45.25
6,-0.19,1.00,0.17,43.66
6,-0.14,0.93,0.11,43.66
6,-0.14,1.09,0.05,47.95
6,-0.02,1.09,0.01,42.05
6,0.12,1.03,0.07,42.05
6,0.09,0.95,0.18,48.54
6,0.02,0.95,0.20,46.92
6,-0.16,1.00,0.20,46.92
6,-0.16,0.94,0.13,44.39
6,-0.16,0.98,0.07,43.47
6,-0.05,1.04,0.07,43.72
6,0.11,1.07,0.07,41.37
6,0.11,0.97,0.13,40.62
6,0.04,0.97,0.13,50.19
6,-0.12,0.97,0.20,50.19
6,-0.11,0.97,0.14,43.95
6,-0.17,0.97,0.15,43.89
6,-0.09,0.98,0.08,43.89
6,0.07,1.10,0.05,42.49
6,0.07,1.11,0.12,46.68
6,0.09,0.98,0.12,46.18
6,-0.08,0.95,0.22,44.61
6,-0.08,1.00,0.15,41.15
6,-0.18,1.00,0.15,42.01
6,-0.12,0.94,0.10,42.01
6,-0.09,1.10,0.04,42.96
6,0.04,1.10,0.03,44.68
6,0.11,1.01,0.09,44.68
6,-0.03,0.94,0.22,46.83
6,-0.03,0.94,0.17,45.77
6,-0.17,1.00,0.17,45.96
6,-0.14,0.92,0.12,45.17
6,-0.14,0.90,0.05,44.92
6,-0.01,1.09,0.05,48.36
6,0.11,1.04,0.08,48.36
6,0.07,0.94,0.19,40.38
6,0.01,0.94,0.19,40.90
6,-0.16,1.01,0.19,40.90
6,-0.17,0.94,0.12,40.30
6,-0.17,0.94,0.07,47.04
6,-0.04,1.06,0.07,47.04
6,0.12,1.07,0.08,37.82
6,0.12,1.08,0.15,39.57
6,0.04,0.95,0.15,39.41
6,-0.12,0.98,0.22,42.55
6,-0.12,0.97,0.13,40.83
6,-0.18,0.97,0.13,40.39
6,-0.07,1.00,0.07,40.39
6,-0.10,1.11,0.05,43.34
6,0.09,1.11,0.13,43.85
6,0.07,0.96,0.13,43.85
6,-0.08,0.97,0.22,43.95
6,-0.08,0.99,0.14,43.04
6,-0.19,0.99,0.14,43.58
6,-0.10,0.95,0.09,43.58
6,-0.10,1.11,0.05,43.83
6,0.04,1.11,0.05,49.00
6,0.09,0.99,0.10,49.00
6,0.08,0.94,0.20,42.55
6,-0.04,0.94,0.21,41.85
6,-0.19,1.00,0.15,41.85
6,-0.12,0.94,0.11,41.85
6,-0.12,0.92,0.05,42.61
6,0.01,1.10,0.05,42.41
6,0.11,1.03,0.09,43.19
6,0.11,0.95,0.20,45.55
6,0.01,0.95,0.20,43.30
6,-0.17,1.00,0.18,43.30
6,-0.16,0.93,0.12,44.56
6,-0.16,0.93,0.07,46.45
6,-0.03,1.07,0.07,46.45
6,0.11,1.06,0.05,47.27
6,0.11,1.06,0.16,44.00
6,0.04,0.96,0.16,44.32
6,-0.14,0.99,0.20,41.19
6,-0.14,0.95,0.13,43.12
6,-0.17,0.95,0.13,50.13
6,-0.06,1.02,0.08,50.13
6,-0.06,1.08,0.05,41.31
6,0.09,1.08,0.00,43.44
6,0.07,0.97,0.13,43.44
6,-0.09,0.97,0.21,41.15
6,-0.09,0.97,0.13,51.50
6,-0.18,0.98,0.13,51.50
6,-0.09,0.97,0.09,43.45
6,-0.09,0.98,0.05,40.26
6,0.05,1.10,0.05,40.10
6,0.09,1.00,0.12,47.15
6,0.09,0.95,0.21,44.73
6,-0.06,0.95,0.21,44.86
6,-0.18,1.00,0.16,44.86
6,-0.18,0.94,0.11,43.28
6,-0.12,0.94,0.04,40.66
6,0.02,1.10,0.04,40.66
6,0.12,1.03,0.10,45.02
6,0.12,1.01,0.19,45.63
6,-0.01,0.94,0.19,45.78
6,-0.16,1.02,0.18,45.78
6,-0.16,0.93,0.12,41.22
6,-0.15,0.93,0.12,45.21
6,-0.02,1.06,0.07,45.21
6,-0.01,1.05,0.08,44.33
6,0.11,1.05,0.10,48.55
6,0.02,0.96,0.16,48.55
6,-0.14,1.00,0.21,46.19
6,-0.14,1.00,0.13,41.04
6,-0.17,0.95,0.13,41.33
6,-0.06,1.02,0.06,46.82
6,-0.06,1.08,0.06,43.07
6,0.11,1.08,0.06,46.24
6,0.05,0.97,0.13,46.24
6,0.02,0.97,0.21,46.10
6,-0.10,0.97,0.19,44.98
6,-0.18,0.98,0.13,44.98
6,-0.08,0.97,0.09,45.95
6,-0.08,0.97,0.05,42.05
6,0.06,1.10,0.05,42.05
6,0.08,0.98,0.11,42.24
6,0.08,0.95,0.21,44.12
6,-0.06,0.95,0.21,42.24
6,-0.18,1.00,0.15,42.24
6,-0.18,0.94,0.11,45.86
6,-0.12,0.94,0.11,46.50
6,0.03,1.11,0.05,46.50
6,0.04,1.01,0.09,43.07
6,0.11,1.01,0.20,40.50
6,-0.02,0.96,0.20,40.50
6,-0.18,1.01,0.17,40.48
6,-0.18,1.05,0.12,47.36
6,-0.15,0.93,0.12,47.44
6,-0.01,1.09,0.06,43.52
6,-0.01,1.04,0.08,47.67
6,0.11,1.04,0.08,46.93
6,0.02,0.95,0.18,46.93
6,0.03,1.00,0.19,44.53
6,-0.15,1.00,0.13,47.05
6,-0.16,0.94,0.13,47.05
6,-0.04,1.04,0.08,42.96
6,-0.04,1.06,0.06,44.98
6,0.09,1.06,0.06,45.34
6,0.04,0.97,0.16,41.42
6,0.04,0.98,0.21,47.42
6,-0.12,0.98,0.21,42.97
6,-0.18,0.96,0.13,42.97
6,-0.13,1.00,0.08,41.25
6,-0.07,1.00,0.11,40.75
6,0.06,1.09,0.05,40.75
6,0.07,0.98,0.12,41.82
6,0.07,0.98,0.21,49.80
6,-0.07,0.97,0.21,49.94
6,-0.18,1.00,0.14,46.02
6,-0.18,0.96,0.10,45.60
6,-0.10,0.96,0.10,38.86
6,0.03,1.10,0.04,38.86
6,0.05,1.01,0.10,44.13
6,0.11,1.01,0.08,44.00
6,-0.03,0.94,0.21,44.00
6,-0.19,1.00,0.16,43.79
6,-0.19,1.00,0.12,43.32
6,-0.13,0.94,0.12,43.32
6,-0.02,1.08,0.05,48.76
6,-0.02,1.10,0.09,44.02
6,0.11,1.03,0.09,48.96
6,0.01,0.95,0.18,48.96
6,0.01,0.99,0.19,43.93
6,-0.17,0.99,0.19,48.19
6,-0.15,0.94,0.13,48.19
6,-0.17,1.04,0.07,42.35
6,-0.04,1.04,0.08,42.07
6,0.10,1.06,0.08,42.07
6,0.02,0.96,0.14,40.34
6,0.02,0.99,0.21,44.88
6,-0.13,0.99,0.21,45.07
6,-0.18,0.96,0.13,44.29
6,-0.18,1.00,0.08,39.70
6,-0.07,1.00,0.08,41.76
6,0.08,1.08,0.06,41.76
6,0.06,0.97,0.13,40.92
6,0.06,0.97,0.15,46.39
6,-0.09,0.96,0.22,46.39
6,-0.18,0.99,0.14,46.88
6,-0.18,0.96,0.08,54.59
6,-0.11,0.96,0.08,54.13
6,0.06,1.10,0.06,42.38
6,0.06,0.99,0.11,43.81
6,0.10,0.99,0.11,42.09
6,-0.04,0.95,0.22,42.09
6,-0.04,1.00,0.16,42.51
6,-0.17,1.00,0.17,44.15
6,-0.13,0.94,0.11,44.15
6,0.00,1.09,0.06,39.42
6,0.00,1.09,0.09,49.61
6,0.11,1.03,0.09,49.69
6,0.01,0.95,0.20,43.42
6,0.01,1.00,0.18,43.68
6,-0.17,1.00,0.18,46.53
6,-0.16,0.94,0.12,46.53
6,-0.16,1.07,0.06,44.14
6,-0.02,1.07,0.01,43.69
6,0.10,1.06,0.07,43.69
6,0.03,0.96,0.16,40.86
6,0.03,0.96,0.20,45.10
6,-0.13,0.99,0.20,45.10
6,-0.18,0.95,0.13,47.47
6,-0.18,0.96,0.08,44.20
6,-0.07,1.02,0.08,44.41
6,0.08,1.08,0.07,42.85
6,0.08,0.98,0.13,45.26
6,0.05,0.98,0.15,50.53
6,-0.09,0.97,0.21,50.53
6,-0.12,0.98,0.14,43.46
6,-0.18,0.98,0.09,45.29
6,-0.09,0.97,0.09,45.29
6,0.06,1.09,0.06,44.79
7,0.11,1.01,0.09,46.11
7,-0.02,0.95,0.19,43.23
7,-0.02,0.99,0.17,41.50
7,-0.18,0.99,0.17,41.91
7,-0.14,0.94,0.10,40.35
7,-0.14,1.06,0.06,37.37
7,-0.03,1.06,0.06,46.24
7,0.11,1.04,0.08,46.24
7,0.09,0.96,0.17,40.80
7,0.03,0.96,0.14,45.12
7,-0.15,0.99,0.20,45.12
7,-0.15,0.96,0.13,42.50
7,-0.15,0.96,0.07,43.41
7,-0.06,1.03,0.07,43.67
7,0.09,1.07,0.06,47.59
7,0.09,0.97,0.13,38.61
7,0.05,0.97,0.13,40.98
7,-0.11,0.97,0.20,40.98
7,-0.11,0.98,0.13,46.49
7,-0.17,0.98,0.14,51.57
7,-0.09,0.99,0.08,51.57
7,0.06,1.09,0.06,42.28
7,0.06,1.09,0.12,43.66
7,0.08,0.99,0.12,43.66
7,-0.07,0.95,0.21,35.21
7,-0.07,0.99,0.15,45.17
7,-0.18,0.99,0.15,46.73
7,-0.11,0.95,0.09,46.73
7,-0.11,1.10,0.05,44.78
7,0.02,1.10,0.05,43.18
7,0.10,1.02,0.11,43.18
7,0.10,0.95,0.20,41.65
7,-0.03,0.95,0.17,44.69
7,-0.17,1.00,0.17,44.69
7,-0.14,0.94,0.11,41.83
7,-0.14,0.89,0.07,42.58
7,-0.01,1.08,0.07,42.68
7,0.11,1.04,0.09,38.76
7,0.11,0.95,0.18,46.45
7,0.01,0.95,0.18,42.92
7,-0.15,0.99,0.18,42.92
7,-0.17,0.94,0.13,46.01
7,-0.17,0.94,0.14,45.56
7,-0.05,1.04,0.08,45.56
7,0.11,1.06,0.07,41.00
7,0.11,1.09,0.15,45.52
7,0.04,0.96,0.15,46.13
7,-0.11,0.98,0.20,43.00
7,-0.11,0.97,0.12,38.39
7,-0.17,0.97,0.12,41.72
7,-0.07,0.99,0.08,41.72
7,-0.12,1.09,0.06,43.79
7,0.07,1.09,0.12,42.13
7,0.07,0.98,0.12,42.13
7,-0.07,0.96,0.20,41.63
7,-0.07,0.96,0.15,44.78
7,-0.18,0.98,0.15,44.80
7,-0.10,0.97,0.09,44.80
7,-0.10,0.97,0.06,44.61
7,0.03,1.10,0.06,47.86
7,0.08,1.00,0.11,47.86
7,0.08,0.96,0.21,42.89
7,-0.03,0.96,0.22,42.67
7,-0.17,1.00,0.15,42.67
7,-0.13,0.94,0.11,44.56
7,-0.13,0.94,0.06,40.90
7,-0.01,1.08,0.06,40.90
7,0.11,1.03,0.09,46.17
7,0.11,1.02,0.17,43.81
7,0.01,0.96,0.17,44.34
7,-0.16,1.00,0.18,41.99
7,-0.16,0.94,0.12,38.54
7,-0.15,0.94,0.07,45.77
7,-0.04,1.06,0.07,45.77
7,-0.03,1.05,0.08,43.48
7,0.10,1.05,0.16,50.63
7,0.04,0.96,0.16,50.63
7,-0.13,0.98,0.19,42.64
7,-0.13,0.96,0.12,44.08
7,-0.16,0.96,0.12,43.84
7,-0.08,1.02,0.08,43.05
7,-0.08,1.07,0.07,48.83
7,0.08,1.07,0.07,45.55
7,0.07,0.97,0.14,45.55
7,0.10,0.96,0.20,43.72
7,-0.09,0.96,0.19,46.92
7,-0.18,0.98,0.13,46.92
7,-0.10,0.97,0.09,39.79
7,-0.10,0.96,0.05,42.07
7,0.04,1.09,0.05,42.03
7,0.10,0.99,0.12,42.81
7,0.10,0.95,0.20,40.28
7,-0.04,0.95,0.20,46.94
7,-0.16,0.99,0.15,46.94
7,-0.13,0.95,0.12,45.68
7,-0.13,0.95,0.12,44.26
7,0.00,1.09,0.06,44.26
7,0.11,1.03,0.10,45.94
7,0.11,1.03,0.19,43.27
7,-0.01,0.95,0.19,43.35
7,-0.17,1.00,0.18,44.13
7,-0.17,1.00,0.12,41.18
7,-0.15,0.94,0.12,47.80
7,-0.03,1.06,0.07,47.80
7,-0.03,1.06,0.09,44.52
7,0.11,1.06,0.10,41.74
7,0.02,0.96,0.17,41.74
7,-0.13,0.99,0.20,39.00
7,-0.13,0.99,0.12,43.62
7,-0.17,0.95,0.12,43.62
7,-0.06,1.02,0.07,41.09
7,-0.06,1.01,0.08,41.45
7,0.09,1.07,0.08,41.60
7,0.05,0.97,0.13,47.09
7,0.05,0.96,0.20,45.81
7,-0.08,0.96,0.19,45.92
7,-0.17,0.98,0.13,45.92
7,-0.16,0.98,0.09,41.97
7,-0.09,0.98,0.06,45.80
7,0.06,1.09,0.06,45.80
7,0.08,0.98,0.11,44.74
7,0.08,0.96,0.20,47.07
7,-0.04,0.96,0.20,47.51
7,-0.18,0.99,0.16,44.38
7,-0.18,0.96,0.10,41.03
7,-0.12,0.96,0.10,41.56
7,0.02,1.09,0.06,41.56
7,0.03,1.01,0.10,47.11
7,0.10,1.01,0.07,40.43
7,-0.01,0.96,0.20,40.43
7,-0.18,1.00,0.16,42.05
7,-0.18,1.00,0.12,41.03
7,-0.14,0.94,0.12,41.29
7,-0.02,1.07,0.06,45.21
7,-0.02,1.04,0.08,45.44
7,0.11,1.04,0.08,43.58
7,0.02,0.96,0.17,43.58
7,0.05,0.99,0.19,44.14
7,-0.14,0.99,0.19,44.49
7,-0.16,0.96,0.13,44.49
7,-0.06,1.03,0.07,45.46
7,-0.06,1.03,0.07,42.81
7,0.09,1.06,0.07,42.84
7,0.05,0.97,0.15,43.63
7,0.05,0.97,0.20,39.99
7,-0.10,0.97,0.20,41.41
7,-0.17,0.97,0.14,41.41
7,-0.17,1.00,0.07,42.45
7,-0.08,1.00,0.12,39.87
7,0.06,1.08,0.06,39.87
7,0.02,0.99,0.13,42.03
7,0.09,0.99,0.20,43.79
7,-0.06,0.96,0.20,43.79
7,-0.17,0.99,0.15,47.82
7,-0.17,0.96,0.11,42.67
7,-0.11,0.96,0.11,42.73
7,0.02,1.08,0.05,45.08
7,0.02,1.00,0.10,43.30
7,0.10,1.00,0.10,45.62
7,-0.03,0.95,0.20,45.62
7,-0.04,1.00,0.16,45.36
7,-0.17,1.00,0.12,41.20
7,-0.14,0.95,0.12,41.20
7,-0.02,1.08,0.07,41.48
7,-0.02,1.10,0.10,40.92
7,0.11,1.03,0.10,41.28
7,0.02,0.95,0.17,43.63
7,0.02,0.99,0.18,41.17
7,-0.15,0.99,0.18,45.76
7,-0.16,0.95,0.12,45.76
7,-0.18,1.05,0.07,39.76
7,-0.05,1.05,0.07,40.48
7,0.09,1.06,0.07,40.48
7,0.03,0.97,0.16,44.44
7,0.03,0.97,0.20,42.42
7,-0.11,0.97,0.20,42.29
7,-0.18,0.96,0.14,39.94
7,-0.18,0.95,0.07,47.33
7,-0.07,1.01,0.07,38.96
7,0.07,1.08,0.07,38.96
7,0.06,0.97,0.12,40.01
7,0.06,0.97,0.09,40.73
7,-0.07,0.96,0.21,40.73
7,-0.17,0.98,0.14,40.02
7,-0.17,0.98,0.10,42.75
7,-0.11,0.95,0.10,42.75
7,0.04,1.10,0.07,39.08
7,0.04,1.06,0.12,41.87
7,0.09,1.00,0.12,42.91
7,-0.03,0.95,0.20,42.91
7,-0.03,0.99,0.16,49.38
7,-0.17,0.99,0.16,51.07
7,-0.13,0.94,0.10,51.07
7,-0.13,1.09,0.07,41.35
7,-0.00,1.09,0.09,42.13
7,0.10,1.02,0.09,42.13
7,-0.01,0.94,0.18,48.00
7,-0.01,0.94,0.18,43.86
7,-0.15,1.01,0.18,43.85
7,-0.15,0.94,0.12,39.93
7,-0.15,1.06,0.06,42.27
7,-0.04,1.06,0.06,43.23
7,0.09,1.05,0.08,43.23
7,0.10,0.97,0.15,41.58
7,0.04,0.97,0.18,40.85
7,-0.12,0.99,0.18,40.85
7,-0.17,0.96,0.14,38.02
7,-0.17,0.97,0.08,46.51
7,-0.08,1.03,0.08,46.37
7,0.07,1.07,0.06,41.67
7,0.07,0.98,0.14,46.35
7,0.06,0.98,0.14,42.35
7,-0.08,0.97,0.20,42.35
7,-0.11,0.98,0.13,39.20
7,-0.18,0.98,0.16,39.72
7,-0.09,0.98,0.10,39.72
7,0.03,1.08,0.06,42.65
7,0.03,1.08,0.12,43.88
7,0.09,1.00,0.12,44.23
7,-0.04,0.95,0.19,43.45
7,-0.04,1.00,0.15,47.36
7,-0.17,1.00,0.15,41.32
7,-0.12,0.95,0.10,41.32
7,-0.12,1.08,0.06,38.81
7,0.00,1.08,0.10,41.81
7,0.10,1.02,0.10,41.81
7,-0.00,0.95,0.19,45.98
7,-0.00,0.95,0.17,43.68
7,-0.16,1.00,0.17,43.68
7,-0.14,0.96,0.12,40.01
7,-0.14,1.00,0.05,41.72
7,-0.04,1.06,0.05,41.63
8,0.08,1.07,0.14,41.52
8,0.04,0.97,0.14,41.68
8,-0.10,0.97,0.20,40.89
8,-0.10,0.97,0.12,45.13
8,-0.17,0.97,0.12,42.47
8,-0.10,0.98,0.08,42.47
8,-0.08,1.08,0.07,45.94
8,0.04,1.08,0.12,38.54
8,0.08,0.99,0.12,38.54
8,-0.06,0.96,0.20,50.75
8,-0.06,0.96,0.15,42.04
8,-0.16,0.99,0.15,41.61
8,-0.13,0.96,0.10,44.74
8,-0.13,0.96,0.06,46.86
8,0.01,1.08,0.06,42.39
8,0.09,1.01,0.10,42.39
8,0.11,0.95,0.20,43.67
8,-0.01,0.95,0.23,50.71
8,-0.16,1.01,0.16,50.71
8,-0.16,0.94,0.12,41.54
8,-0.16,0.94,0.07,43.74
8,-0.01,1.07,0.07,43.74
8,0.09,1.04,0.10,44.78
8,0.09,1.03,0.18,42.20
8,0.03,0.96,0.18,44.82
8,-0.14,1.00,0.18,44.82
8,-0.14,0.96,0.12,45.83
8,-0.16,0.96,0.08,47.27
8,-0.05,1.04,0.08,47.27
8,-0.04,1.05,0.08,46.68
8,0.08,1.05,0.15,42.13
8,0.04,0.98,0.15,42.13
8,-0.10,0.98,0.19,44.01
8,-0.10,0.97,0.13,49.34
8,-0.18,0.97,0.13,49.60
8,-0.08,0.99,0.07,42.55
8,-0.08,1.08,0.07,46.05
8,0.06,1.08,0.07,46.29
8,0.07,0.98,0.13,46.29
8,0.12,0.96,0.20,41.52
8,-0.06,0.96,0.20,41.95
8,-0.18,0.98,0.14,41.95
8,-0.11,0.97,0.10,43.01
8,-0.11,0.96,0.05,44.28
8,0.03,1.08,0.05,44.17
8,0.09,1.01,0.12,42.60
8,0.09,0.96,0.20,43.76
8,-0.02,0.96,0.20,41.84
8,-0.17,1.00,0.15,41.84
8,-0.13,0.95,0.12,46.78
8,-0.13,0.95,0.07,47.16
8,-0.02,1.07,0.07,47.16
8,0.10,1.03,0.09,39.94
8,0.10,1.03,0.18,43.28
8,0.02,0.96,0.18,43.50
8,-0.15,1.00,0.18,44.28
8,-0.15,0.95,0.12,46.78
8,-0.15,0.95,0.12,46.56
8,-0.05,1.04,0.07,46.56
8,-0.03,1.05,0.07,41.29
8,0.09,1.05,0.09,46.06
8,0.04,0.97,0.16,46.06
8,-0.11,0.99,0.18,41.59
8,-0.11,0.99,0.13,39.06
8,-0.16,0.97,0.13,39.06
8,-0.08,1.01,0.08,43.90
8,-0.08,1.00,0.07,45.09
8,0.07,1.07,0.07,45.32
8,0.06,0.99,0.13,40.62
8,0.06,0.96,0.19,42.45
8,-0.08,0.96,0.20,45.24
8,-0.17,0.97,0.14,45.24
8,-0.17,0.98,0.10,42.06
8,-0.11,0.98,0.06,38.82
8,0.04,1.08,0.06,38.82
8,0.09,1.01,0.12,45.64
8,0.09,1.02,0.19,40.50
8,-0.04,0.96,0.19,39.99
8,-0.16,0.99,0.16,45.47
8,-0.16,0.95,0.10,36.91
8,-0.13,0.95,0.10,44.82
8,-0.01,1.07,0.05,44.82
8,-0.03,1.02,0.10,44.72
8,0.09,1.02,0.12,45.00
8,-0.01,0.96,0.19,45.00
8,-0.15,0.99,0.17,42.56
8,-0.15,0.95,0.12,43.86
8,-0.15,0.95,0.12,44.27
8,-0.04,1.05,0.07,42.70
8,-0.04,1.05,0.09,41.89
8,0.08,1.05,0.09,43.24
8,0.02,0.97,0.16,43.24
8,0.01,0.99,0.19,40.91
8,-0.11,0.99,0.25,42.38
8,-0.17,0.96,0.12,42.38
8,-0.07,1.02,0.07,42.25
8,-0.07,1.02,0.07,40.86
8,0.07,1.07,0.07,40.81
8,0.04,0.98,0.13,47.86
8,0.04,0.98,0.21,40.52
8,-0.08,0.98,0.21,40.18
8,-0.16,0.98,0.14,40.18
8,-0.16,0.98,0.09,44.11
8,-0.10,0.98,0.06,44.59
8,0.05,1.08,0.06,44.59
8,0.02,1.00,0.11,49.76
8,0.09,1.00,0.20,40.51
8,-0.04,0.96,0.20,40.51
8,-0.18,0.99,0.15,42.60
8,-0.18,0.96,0.10,43.49
8,-0.11,0.96,0.10,43.50
8,0.01,1.08,0.07,43.50
8,0.01,1.01,0.10,47.93
8,0.09,1.01,0.12,39.42
8,0.01,0.96,0.19,39.42
8,0.03,1.00,0.16,41.54
8,-0.16,1.00,0.12,39.92
8,-0.14,0.96,0.12,39.92
8,-0.04,1.06,0.07,41.85
8,-0.04,1.04,0.09,45.43
8,0.10,1.04,0.09,45.90
8,0.03,0.96,0.18,45.12
8,0.03,0.99,0.18,43.32
8,-0.13,0.99,0.18,42.59
8,-0.15,0.96,0.11,42.59
8,-0.13,1.04,0.07,40.48
8,-0.06,1.04,0.08,47.09
8,0.08,1.05,0.08,47.09
8,0.06,0.98,0.15,39.42
8,0.06,0.98,0.20,37.44
8,-0.11,0.98,0.20,37.18
8,-0.16,0.97,0.13,48.15
8,-0.16,0.99,0.09,43.45
8,-0.09,0.99,0.09,46.48
8,0.05,1.06,0.06,46.48
8,0.01,0.99,0.14,47.30
8,0.08,0.99,0.14,43.88
8,-0.06,0.97,0.20,43.88
8,-0.17,1.00,0.14,48.61
8,-0.17,1.00,0.10,43.68
8,-0.12,0.98,0.10,43.68
8,0.02,1.07,0.06,45.48
8,0.02,1.07,0.11,41.85
8,0.10,1.00,0.11,48.15
8,-0.02,0.95,0.20,48.15
8,-0.02,1.00,0.16,50.97
8,-0.15,1.00,0.18,41.71
8,-0.14,0.95,0.12,41.71
8,-0.16,1.07,0.07,45.55
8,-0.03,1.07,0.09,40.89
8,0.10,1.03,0.09,40.89
8,0.02,0.96,0.16,41.21
8,0.02,1.00,0.18,45.08
8,-0.13,1.00,0.18,45.20
8,-0.17,0.95,0.12,44.42
8,-0.17,1.04,0.08,44.02
8,-0.05,1.04,0.08,40.99
8,0.10,1.06,0.08,40.99
8,0.10,0.97,0.15,43.03
8,0.04,0.97,0.19,47.30
8,-0.10,0.98,0.19,47.30
8,-0.16,0.97,0.14,43.24
8,-0.16,0.99,0.07,42.41
8,-0.09,0.99,0.07,42.44
8,0.06,1.08,0.08,42.44
8,0.06,0.98,0.13,46.85
8,0.06,0.98,0.13,46.89
8,-0.07,0.97,0.20,46.89
8,-0.11,0.98,0.14,45.28
8,-0.17,0.98,0.16,43.27
8,-0.10,0.97,0.09,43.27
8,0.02,1.08,0.07,43.26
8,0.02,1.08,0.12,46.02
8,0.09,1.00,0.12,45.76
8,-0.03,0.96,0.19,43.41
8,-0.03,0.99,0.16,40.09
8,-0.17,0.99,0.16,42.02
8,-0.13,0.95,0.11,42.02
8,-0.14,1.07,0.06,39.16
8,-0.01,1.07,0.03,44.65
8,0.09,1.02,0.10,44.65
8,0.01,0.97,0.18,46.43
8,0.01,0.97,0.18,44.96
8,-0.15,0.99,0.18,44.96
8,-0.15,0.96,0.11,43.71
8,-0.15,0.98,0.08,46.13
8,-0.04,1.04,0.08,45.21
8,0.09,1.04,0.08,45.21
8,0.09,0.97,0.17,41.14
8,0.04,0.97,0.13,39.72
8,-0.11,0.98,0.19,39.72
8,-0.10,0.96,0.14,41.07
8,-0.17,0.96,0.09,41.92
8,-0.08,1.01,0.09,41.92
8,0.06,1.06,0.08,47.11
8,0.06,1.05,0.13,45.91
8,0.07,0.98,0.13,45.78
8,-0.07,0.96,0.19,41.86
8,-0.07,0.99,0.14,42.78
8,-0.16,0.99,0.14,45.75
8,-0.10,0.98,0.08,45.75
8,-0.09,1.07,0.06,44.05
8,0.03,1.07,0.05,37.89
8,0.09,1.01,0.11,37.89
8,-0.03,0.95,0.20,43.03
8,-0.03,0.99,0.16,48.15
8,-0.17,0.99,0.16,48.04
8,-0.13,0.97,0.11,50.39
8,-0.13,1.06,0.07,48.54
8,-0.00,1.06,0.07,41.03
8,0.09,1.02,0.10,41.03
8,0.06,0.96,0.19,43.09
8,0.00,0.96,0.18,41.12
8,-0.15,0.99,0.18,41.12
8,-0.15,0.95,0.10,43.71
8,-0.15,0.95,0.06,46.82
8,-0.05,1.06,0.06,46.86
8,0.10,1.04,0.08,46.07
8,0.10,1.03,0.17,43.56
8,0.03,0.96,0.17,50.92
8,-0.12,0.99,0.19,50.92
8,-0.09,0.97,0.12,46.48
8,-0.15,0.97,0.07,47.03
8,-0.07,1.02,0.07,47.03
8,0.06,1.06,0.08,42.28
8,0.06,1.06,0.14,37.94
8,0.05,0.98,0.14,37.94
8,-0.09,0.97,0.19,46.68
8,-0.09,0.98,0.14,41.90
8,-0.16,0.98,0.14,41.49
8,-0.09,0.99,0.08,41.49
8,-0.09,1.07,0.06,40.16
9,0.09,1.01,0.11,42.89
9,0.09,0.96,0.19,39.49
9,-0.01,0.96,0.19,44.41
9,-0.15,1.00,0.17,44.41
9,-0.15,0.95,0.11,40.17
9,-0.15,0.95,0.07,42.44
9,-0.03,1.06,0.07,42.44
9,0.09,1.03,0.09,42.01
9,0.09,1.02,0.17,43.88
9,0.03,0.96,0.17,44.50
9,-0.12,0.99,0.18,48.42
9,-0.12,0.96,0.12,39.54
9,-0.15,0.96,0.12,44.41
9,-0.06,1.04,0.08,44.41
9,-0.05,1.05,0.09,40.97
9,0.07,1.05,0.09,48.08
9,0.06,0.97,0.15,48.08
9,-0.09,0.97,0.19,41.98
9,-0.09,0.97,0.13,42.85
9,-0.17,0.97,0.13,42.81
9,-0.08,1.00,0.08,38.89
9,-0.08,1.00,0.07,41.14
9,0.04,1.06,0.07,40.14
9,0.08,0.99,0.13,40.14
9,0.07,0.96,0.19,46.14
9,-0.06,0.96,0.20,42.55
9,-0.17,0.98,0.13,42.55
9,-0.11,0.97,0.09,40.48
9,-0.11,0.97,0.06,40.51
9,0.01,1.07,0.06,40.51
9,0.10,1.01,0.11,46.20
9,0.10,1.03,0.19,44.03
9,-0.02,0.97,0.19,44.46
9,-0.16,0.99,0.16,44.46
9,-0.16,0.96,0.11,40.82
9,-0.13,0.96,0.07,42.98
9,-0.03,1.07,0.07,42.98
9,-0.03,1.03,0.10,47.26
9,0.09,1.03,0.18,43.06
9,0.02,0.96,0.18,43.06
9,-0.13,0.99,0.17,44.03
9,-0.13,0.97,0.13,48.34
9,-0.15,0.97,0.13,48.16
9,-0.06,1.04,0.07,46.60
9,-0.06,1.05,0.09,45.97
9,0.08,1.05,0.09,46.50
9,0.04,0.97,0.16,46.50
9,0.02,0.98,0.18,45.41
9,-0.11,0.98,0.13,44.94
9,-0.16,0.97,0.13,44.94
9,-0.09,1.01,0.09,39.97
9,-0.09,1.00,0.07,39.91
9,0.06,1.07,0.07,39.92
9,0.07,0.99,0.13,45.41
9,0.07,0.96,0.20,46.25
9,-0.06,0.96,0.20,42.44
9,-0.16,0.99,0.13,42.44
9,-0.18,0.97,0.10,45.75
9,-0.11,0.97,0.06,44.22
9,0.02,1.08,0.06,44.22
9,0.09,1.01,0.11,45.17
9,0.09,1.01,0.20,41.40
9,-0.03,0.96,0.20,41.11
9,-0.16,1.00,0.15,45.03
9,-0.16,0.95,0.11,44.01
9,-0.13,0.95,0.11,45.08
9,-0.01,1.07,0.06,45.08
9,-0.01,1.02,0.10,48.94
9,0.09,1.02,0.12,43.40
9,0.01,0.96,0.18,43.40
9,-0.13,1.00,0.17,43.70
9,-0.13,1.00,0.12,44.48
9,-0.15,0.96,0.12,44.48
9,-0.05,1.05,0.08,41.79
9,-0.05,1.04,0.09,50.54
9,0.08,1.04,0.09,50.56
9,0.03,0.97,0.15,48.21
9,0.03,0.98,0.19,41.95
9,-0.11,0.98,0.18,38.83
9,-0.17,0.96,0.12,38.83
9,-0.14,1.01,0.08,43.60
9,-0.08,1.01,0.08,42.89
9,0.06,1.05,0.08,42.89
9,0.06,0.99,0.14,44.88
9,0.06,0.97,0.20,48.23
9,-0.06,0.97,0.20,48.49
9,-0.16,0.98,0.14,46.14
9,-0.16,0.99,0.09,44.57
9,-0.10,0.99,0.09,50.91
9,0.03,1.06,0.07,50.91
9,0.01,1.00,0.12,46.25
9,0.08,1.00,0.07,43.43
9,-0.03,0.97,0.19,43.43
9,-0.16,0.99,0.15,45.03
9,-0.16,0.97,0.10,39.70
9,-0.11,0.97,0.10,39.51
9,-0.00,1.07,0.07,43.43
9,-0.00,1.01,0.11,46.19
9,0.08,1.01,0.11,42.03
9,0.00,0.96,0.19,42.03
9,0.04,1.00,0.16,48.15
9,-0.15,1.00,0.17,42.99
9,-0.14,0.95,0.11,42.99
9,-0.03,1.05,0.06,41.12
9,-0.03,1.05,0.09,44.42
9,0.09,1.03,0.09,44.06
9,0.03,0.97,0.16,44.06
9,0.03,0.98,0.18,41.91
9,-0.12,0.98,0.18,42.50
9,-0.15,0.97,0.12,42.50
9,-0.15,1.02,0.08,41.18
9,-0.07,1.02,0.08,43.54
9,0.07,1.05,0.08,43.54
9,0.06,0.98,0.14,43.62
9,0.06,0.98,0.19,44.11
9,-0.08,0.97,0.19,44.11
9,-0.16,0.98,0.13,45.07
9,-0.16,1.00,0.08,44.42
9,-0.09,1.00,0.08,44.52
9,0.04,1.07,0.07,43.73
9,0.04,1.00,0.13,41.31
9,0.08,1.00,0.14,49.46
9,-0.05,0.95,0.20,49.46
9,-0.03,0.99,0.14,43.11
9,-0.16,0.99,0.09,40.62
9,-0.12,0.97,0.09,40.62
9,0.00,1.08,0.07,46.85
9,0.00,1.08,0.11,42.36
9,0.09,1.01,0.11,42.96
9,-0.01,0.96,0.19,49.22
9,-0.01,0.99,0.17,47.44
9,-0.15,0.99,0.17,39.59
9,-0.14,0.96,0.11,39.59
9,-0.16,1.06,0.07,40.09
9,-0.03,1.06,0.09,48.40
9,0.08,1.03,0.09,48.40
9,0.02,0.96,0.17,44.35
9,0.02,0.96,0.17,41.85
9,-0.12,1.00,0.17,42.03
9,-0.15,0.96,0.11,47.51
9,-0.15,1.03,0.07,52.44
9,-0.06,1.03,0.07,47.28
9,0.07,1.06,0.09,47.28
9,0.10,0.97,0.14,46.15
9,0.04,0.97,0.19,42.04
9,-0.10,0.98,0.19,42.04
9,-0.16,0.97,0.12,44.83
9,-0.16,0.97,0.10,38.88
9,-0.08,1.00,0.10,39.04
9,0.06,1.06,0.07,42.95
9,0.06,1.11,0.13,47.41
9,0.07,0.99,0.13,45.95
9,-0.06,0.96,0.20,45.95
9,-0.06,0.98,0.14,41.97
9,-0.16,0.98,0.15,42.12
9,-0.11,0.99,0.09,42.12
9,-0.11,1.07,0.06,43.26
9,0.02,1.07,0.11,44.80
9,0.08,1.01,0.11,44.80
9,-0.02,0.96,0.19,42.33
9,-0.02,0.99,0.16,41.94
9,-0.16,0.99,0.16,41.83
9,-0.14,0.97,0.11,44.18
9,-0.14,1.06,0.08,44.59
9,-0.03,1.06,0.08,41.66
9,0.09,1.03,0.10,41.66
9,0.08,0.97,0.18,44.85
9,0.01,0.97,0.19,47.14
9,-0.14,0.99,0.19,47.14
9,-0.15,0.96,0.12,41.73
9,-0.15,0.98,0.07,46.10
9,-0.05,1.04,0.07,46.08
9,0.08,1.05,0.08,45.30
9,0.08,0.98,0.16,44.78
9,0.05,0.98,0.16,39.30
9,-0.10,0.98,0.18,39.30
9,-0.09,0.97,0.12,41.18
9,-0.15,0.97,0.09,44.36
9,-0.08,1.01,0.09,44.36
9,0.06,1.05,0.07,44.35
9,0.06,1.05,0.13,41.07
9,0.07,0.99,0.13,41.19
9,-0.06,0.96,0.20,42.75
9,-0.06,0.99,0.15,40.69
9,-0.16,0.99,0.15,42.54
9,-0.11,0.99,0.09,42.54
9,-0.10,1.07,0.07,45.35
9,0.03,1.07,0.12,44.29
9,0.08,1.00,0.12,44.29
9,-0.03,0.96,0.19,43.45
9,-0.03,0.96,0.14,43.64
9,-0.16,0.99,0.14,43.64
9,-0.13,0.96,0.10,40.98
9,-0.13,1.00,0.07,48.34
9,-0.02,1.06,0.07,40.86
9,0.09,1.02,0.11,40.86
9,0.09,0.96,0.18,44.78
9,0.01,0.96,0.17,44.96
9,-0.14,0.99,0.17,44.96
9,-0.15,0.96,0.12,44.60
9,-0.15,0.96,0.07,43.19
9,-0.05,1.04,0.07,43.19
9,0.08,1.04,0.09,47.55
9,0.08,1.04,0.15,40.57
9,0.03,0.97,0.15,40.60
9,-0.11,0.99,0.18,42.95
9,-0.11,0.97,0.12,46.59
9,-0.16,0.97,0.12,46.34
9,-0.08,1.02,0.08,46.34
9,-0.12,1.05,0.08,43.73
9,0.06,1.05,0.08,46.41
9,0.05,0.98,0.15,46.41
9,-0.08,0.96,0.19,42.75
9,-0.08,0.98,0.13,45.39
9,-0.15,0.98,0.13,46.06
9,-0.11,0.99,0.08,39.01
9,-0.11,1.07,0.07,41.02
9,0.03,1.07,0.07,46.27
9,0.08,1.00,0.13,46.27
9,0.09,0.96,0.19,47.37
9,-0.03,0.96,0.20,44.01
9,-0.16,0.99,0.14,44.01
9,-0.11,0.98,0.10,38.22
9,-0.11,0.98,0.07,38.26
9,-0.00,1.06,0.07,37.59
9,0.08,1.01,0.11,45.43
9,0.08,1.02,0.19,42.27
9,0.00,0.96,0.19,45.88
9,-0.14,1.00,0.16,45.88
9,-0.14,0.96,0.11,42.27
9,-0.14,0.96,0.08,41.30
9,-0.03,1.06,0.08,41.30
10,0.06,1.05,0.08,45.99
34,-0.03,1.00,0.13,42.60
34,-0.02,1.00,0.13,46.92
34,-0.02,1.00,0.13,46.92
34,-0.02,0.99,0.13,41.37
34,-0.05,0.99,0.13,49.58
34,-0.06,1.00,0.13,49.58
34,-0.05,1.00,0.13,48.68
34,-0.05,1.00,0.14,42.14
34,-0.02,1.00,0.14,42.14
34,-0.02,1.00,0.14,38.04
34,-0.02,1.00,0.13,46.92
34,-0.05,1.00,0.13,46.57
34,-0.06,1.00,0.12,45.00
34,-0.06,1.01,0.12,44.21
34,-0.05,1.01,0.12,37.02
34,-0.02,1.00,0.13,37.02
34,-0.03,1.00,0.13,38.37
34,-0.03,1.00,0.14,46.77
34,-0.04,1.00,0.14,46.77
34,-0.06,1.00,0.14,43.31
34,-0.06,1.00,0.12,50.80
34,-0.05,1.00,0.12,50.11
34,-0.03,1.00,0.13,43.84
34,-0.03,1.00,0.13,40.95
34,-0.02,1.00,0.13,45.60
34,-0.03,1.01,0.14,45.60
34,-0.06,1.00,0.12,44.05
34,-0.06,1.00,0.12,43.41
34,-0.06,1.00,0.12,43.41
34,-0.04,1.00,0.13,45.22
34,-0.04,1.00,0.13,41.50
34,-0.02,1.00,0.13,41.50
34,-0.03,0.99,0.13,37.73
34,-0.03,0.99,0.13,45.21
34,-0.05,0.99,0.13,44.73
34,-0.06,1.00,0.11,47.08
34,-0.06,1.00,0.13,42.38
34,-0.04,1.00,0.13,39.18
34,-0.02,1.00,0.13,39.18
34,-0.02,1.00,0.13,44.30
34,-0.02,1.00,0.13,46.85
34,-0.05,1.00,0.13,46.85
34,-0.06,1.00,0.12,42.00
34,-0.06,0.99,0.13,46.74
34,-0.04,0.99,0.13,46.23
34,-0.03,1.01,0.12,38.40
34,-0.03,1.00,0.13,38.42
34,-0.03,1.00,0.13,48.89
34,-0.05,1.00,0.14,48.89
34,-0.06,1.00,0.13,40.88
34,-0.06,1.00,0.14,40.62
34,-0.05,1.00,0.14,40.62
34,-0.03,1.00,0.12,42.82
34,-0.03,1.00,0.14,42.52
34,-0.02,1.01,0.14,42.52
34,-0.04,0.99,0.13,41.36
34,-0.04,0.99,0.12,49.01
34,-0.06,0.99,0.12,39.98
34,-0.06,0.99,0.13,39.98
34,-0.06,1.00,0.12,47.31
34,-0.02,1.00,0.07,47.70
34,-0.03,1.00,0.14,47.70
34,-0.04,0.99,0.13,46.04
34,-0.04,0.99,0.13,46.61
34,-0.05,1.00,0.13,46.61
34,-0.06,1.00,0.12,45.69
34,-0.06,0.94,0.12,42.35
34,-0.04,1.00,0.12,42.59
34,-0.02,0.99,0.13,48.85
34,-0.02,1.00,0.14,38.82
34,-0.02,1.00,0.14,45.68
34,-0.05,0.99,0.13,45.68
34,-0.00,1.00,0.13,47.40
34,-0.06,1.00,0.13,49.16
34,-0.05,1.00,0.13,49.16
34,-0.03,1.00,0.12,46.07
34,-0.03,1.00,0.13,43.12
34,-0.03,1.00,0.13,43.46
34,-0.05,0.99,0.13,41.89
34,-0.05,0.99,0.13,40.87
34,-0.06,0.99,0.13,48.99
34,-0.05,1.00,0.11,48.99
34,-0.05,0.99,0.13,41.69
34,-0.03,0.99,0.13,44.04
34,-0.02,0.99,0.13,44.04
34,-0.04,1.00,0.12,42.49
34,-0.04,1.00,0.13,42.84
34,-0.07,1.00,0.13,42.84
34,-0.05,1.00,0.13,43.89
34,-0.05,1.01,0.12,46.19
34,-0.04,1.01,0.12,46.24
34,-0.03,1.00,0.13,45.45
34,-0.03,1.00,0.12,45.34
34,-0.03,1.00,0.12,46.03
34,-0.06,0.99,0.13,46.03
34,-0.06,1.00,0.12,46.74
34,-0.06,1.00,0.12,45.95
34,-0.03,1.00,0.12,45.95
34,-0.02,1.00,0.13,45.91
34,-0.02,1.00,0.13,46.66
34,-0.03,1.00,0.13,46.49
34,-0.05,0.99,0.12,46.49
34,-0.05,0.99,0.13,42.48
34,-0.06,0.99,0.13,44.44
34,-0.05,1.00,0.13,44.44
34,-0.02,1.01,0.14,45.84
34,-0.02,1.01,0.13,50.07
34,-0.03,0.99,0.13,50.07
34,-0.04,0.99,0.13,37.88
34,-0.04,0.99,0.12,40.98
34,-0.05,1.00,0.12,40.86
34,-0.04,1.00,0.13,42.43
34,-0.04,1.00,0.14,43.91
34,-0.02,1.00,0.14,40.21
34,-0.03,1.00,0.14,40.21
34,-0.03,1.00,0.13,41.47
34,-0.04,1.00,0.18,45.47
34,-0.06,0.99,0.12,45.47
34,-0.00,1.00,0.13,42.04
34,-0.06,1.00,0.12,48.72
34,-0.03,1.00,0.12,48.72
34,-0.03,0.99,0.13,41.96
34,-0.03,0.94,0.13,46.68
34,-0.04,1.00,0.13,46.18
35,-0.05,0.94,0.12,45.86
35,-0.06,1.00,0.12,45.24
35,-0.04,1.00,0.13,45.24
35,-0.04,1.00,0.13,47.91
35,-0.03,1.00,0.13,44.27
35,-0.03,1.00,0.13,44.27
35,-0.05,1.00,0.13,48.59
35,-0.05,1.00,0.12,42.73
35,-0.05,1.01,0.12,42.73
35,-0.05,1.01,0.12,42.43
35,-0.05,1.06,0.14,41.82
35,-0.03,1.00,0.14,42.07
35,-0.02,1.00,0.13,46.77
35,-0.02,1.00,0.13,39.63
35,-0.04,1.00,0.13,41.43
35,-0.07,1.00,0.13,41.43
35,-0.12,1.00,0.13,45.00
35,-0.06,1.00,0.19,41.84
35,-0.03,1.00,0.12,41.84
35,-0.03,1.00,0.15,42.72
35,-0.03,1.00,0.13,42.75
35,-0.04,0.99,0.13,42.77
35,-0.05,1.01,0.13,37.29
35,-0.05,1.00,0.12,46.71
35,-0.06,1.00,0.12,47.97
35,-0.03,1.00,0.13,47.97
35,-0.03,1.00,0.14,54.19
35,-0.03,1.00,0.14,42.79
35,-0.03,1.00,0.14,42.79
35,-0.06,0.99,0.12,41.68
35,-0.06,0.99,0.12,43.47
35,-0.05,1.00,0.12,43.47
35,-0.04,1.00,0.13,47.16
35,-0.04,1.06,0.13,48.25
35,-0.03,1.00,0.13,48.40
35,-0.03,1.00,0.12,42.92
35,-0.03,0.99,0.12,35.35
35,-0.04,0.99,0.12,52.14
35,-0.05,0.99,0.12,52.14
35,-0.05,0.99,0.13,41.09
35,-0.05,0.99,0.13,47.58
35,-0.02,1.00,0.13,47.58
35,-0.02,1.00,0.13,41.16
35,-0.02,1.05,0.13,41.38
35,-0.05,0.99,0.13,41.31
35,-0.06,1.00,0.12,42.88
35,-0.06,1.00,0.12,40.21
35,-0.05,1.00,0.12,40.32
35,-0.03,1.00,0.13,40.32
35,-0.03,1.00,0.13,43.30
35,-0.03,1.00,0.13,45.21
35,-0.04,0.99,0.13,45.21
35,-0.06,1.00,0.13,40.40
35,-0.06,1.00,0.12,48.33
35,-0.05,1.00,0.12,48.34
35,-0.03,1.00,0.12,51.47
35,-0.03,1.00,0.14,46.90
35,-0.03,1.00,0.14,45.25
35,-0.04,0.99,0.14,45.25
35,-0.04,1.00,0.13,45.50
35,-0.05,1.00,0.13,44.82
35,-0.06,0.99,0.13,44.82
35,-0.04,1.00,0.13,47.54
35,-0.04,1.00,0.13,42.54
35,-0.02,1.01,0.13,42.54
35,-0.03,1.00,0.13,43.68
35,-0.03,1.00,0.14,43.06
35,-0.05,1.00,0.14,43.02
35,-0.07,0.99,0.12,40.67
35,-0.07,1.00,0.12,42.50
35,-0.04,1.00,0.12,48.65
35,-0.03,1.01,0.12,48.65
35,-0.03,1.00,0.12,43.34
35,-0.03,1.00,0.07,40.69
35,-0.05,1.00,0.13,40.69
35,-0.05,1.00,0.12,39.44
35,-0.05,1.00,0.12,43.98
35,-0.05,1.00,0.12,44.30
35,-0.03,1.00,0.12,40.39
35,-0.03,1.06,0.13,41.05
35,-0.02,1.00,0.13,43.29
35,-0.04,1.00,0.14,43.29
35,-0.05,0.99,0.13,44.51
35,-0.05,0.99,0.19,41.11
35,-0.05,1.00,0.12,41.11
35,-0.03,1.00,0.13,43.79
35,-0.03,1.00,0.14,45.30
35,-0.02,0.99,0.14,45.30
35,-0.03,1.00,0.14,46.28
35,-0.03,1.00,0.12,46.24
35,-0.06,1.00,0.12,46.51
35,-0.06,0.99,0.12,44.16
35,-0.06,1.00,0.13,37.97
35,-0.04,1.00,0.13,46.94
35,-0.02,1.00,0.13,46.94
35,-0.03,1.00,0.13,40.95
35,-0.03,1.00,0.13,43.34
35,-0.05,1.00,0.13,43.34
35,-0.06,1.00,0.12,39.63
35,-0.06,1.00,0.12,40.20
35,-0.04,1.00,0.12,40.15
35,-0.03,1.00,0.13,46.42
35,-0.03,1.00,0.13,44.78
35,-0.02,1.00,0.13,41.46
35,-0.05,0.99,0.14,41.46
35,-0.06,1.00,0.12,39.21
35,-0.06,1.00,0.08,40.27
35,-0.05,1.00,0.14,40.27
35,-0.02,1.01,0.12,42.54
35,-0.02,1.01,0.13,41.01
35,-0.03,1.00,0.13,40.91
35,-0.05,0.99,0.14,41.70
35,-0.05,1.00,0.13,46.19
35,-0.06,1.00,0.13,44.81
35,-0.06,1.00,0.12,44.81
35,-0.06,1.00,0.13,41.15
35,-0.03,1.00,0.13,40.48
35,-0.02,1.00,0.13,40.48
35,-0.03,1.00,0.13,49.19
35,-0.03,1.00,0.12,41.96
35,-0.06,1.00,0.12,41.96
35,-0.05,0.99,0.12,39.67
35,-0.05,0.94,0.13,41.31
35,-0.04,1.00,0.13,41.36
35,-0.02,1.00,0.13,44.50
35,-0.02,0.99,0.14,40.09
35,-0.03,0.99,0.14,39.57
35,-0.05,1.00,0.13,39.57
35,-0.05,1.00,0.12,41.11
35,-0.05,1.00,0.06,42.77
35,-0.04,1.00,0.13,42.77
35,-0.02,1.00,0.13,45.03
35,-0.02,1.00,0.14,44.66
35,-0.02,0.99,0.14,45.02
35,-0.05,1.00,0.14,40.32
35,-0.05,0.94,0.13,44.03
35,-0.06,1.00,0.13,45.57
35,-0.04,1.00,0.13,45.57
35,-0.03,1.00,0.13,39.36
35,-0.03,1.00,0.13,41.13
35,-0.03,1.00,0.13,41.13
35,-0.06,0.99,0.13,41.95
35,-0.06,0.99,0.13,45.13
35,-0.07,1.00,0.13,45.13
35,-0.05,1.00,0.12,40.97
35,-0.05,1.01,0.11,46.53
35,-0.03,1.01,0.11,46.61
35,-0.03,1.00,0.14,37.21
35,-0.03,1.00,0.14,39.55
35,-0.04,1.00,0.14,44.57
35,-0.06,1.00,0.13,44.57
35,-0.00,1.01,0.12,44.72
35,-0.06,1.01,0.06,45.81
35,-0.03,1.00,0.13,45.81
35,-0.03,1.00,0.12,50.32
35,-0.03,1.06,0.13,45.62
35,-0.03,1.00,0.13,46.08
35,-0.05,1.00,0.12,46.86
35,-0.05,1.00,0.12,43.12
35,-0.06,1.00,0.12,44.11
35,-0.04,1.01,0.12,44.11
35,-0.02,1.01,0.12,48.63
35,-0.02,1.01,0.12,46.90
35,-0.03,1.00,0.12,46.90
35,-0.04,1.00,0.12,41.79
35,-0.04,1.00,0.12,42.12
35,-0.06,1.00,0.12,41.92
35,-0.04,1.00,0.12,50.54
35,-0.04,1.06,0.14,45.53
35,-0.03,1.00,0.14,44.65
35,-0.03,1.00,0.12,44.65
35,-0.03,1.00,0.12,46.54
35,-0.04,1.00,0.06,51.61
35,-0.06,1.00,0.13,51.61
35,-0.05,1.00,0.13,43.54
35,-0.05,1.00,0.12,45.02
35,-0.03,1.01,0.12,45.02
35,-0.03,1.00,0.13,47.52
35,-0.03,0.94,0.14,41.79
35,-0.05,1.00,0.14,42.06
35,-0.05,0.99,0.13,42.84
35,-0.05,0.99,0.12,45.96
35,-0.05,0.99,0.12,44.67
35,-0.03,1.01,0.13,44.67
35,-0.02,1.00,0.13,42.26
35,-0.02,1.00,0.14,44.93
35,-0.04,1.00,0.14,44.93
35,-0.06,1.00,0.13,45.98
35,-0.06,1.00,0.13,41.41
35,-0.06,1.00,0.13,41.43
35,-0.04,1.00,0.12,44.57
35,-0.04,1.06,0.12,38.92
35,-0.03,0.99,0.12,41.13
35,-0.04,1.00,0.14,41.13
35,-0.05,1.00,0.12,46.27
35,-0.05,1.00,0.07,44.31
35,-0.06,1.00,0.13,44.31
35,-0.04,1.00,0.12,43.19
35,-0.04,1.00,0.12,43.04
35,-0.03,1.00,0.12,43.04
35,-0.03,1.00,0.13,40.95
35,-0.03,1.00,0.13,41.02
35,-0.04,1.00,0.13,41.40
35,-0.06,0.99,0.12,42.97
35,-0.06,1.00,0.14,38.85
35,-0.05,1.00,0.14,46.36
35,-0.03,1.00,0.13,46.36
35,-0.02,1.00,0.12,41.04
35,-0.02,1.00,0.07,45.08
35,-0.05,1.00,0.13,45.08
35,-0.06,1.00,0.13,43.44
35,-0.06,1.00,0.12,40.43
35,-0.05,1.00,0.12,40.26
35,-0.04,1.00,0.13,48.88
35,-0.04,0.99,0.13,41.83
35,-0.03,0.99,0.13,39.53
35,-0.03,0.99,0.12,39.53
35,-0.06,0.99,0.13,37.50
35,-0.06,0.99,0.18,44.27
35,-0.06,1.00,0.11,44.27
35,-0.04,1.01,0.13,48.17
35,-0.04,1.01,0.14,39.36
35,-0.02,1.01,0.14,39.78
35,-0.03,1.00,0.12,42.13
35,-0.03,0.94,0.13,43.53
35,-0.05,1.00,0.13,41.91
35,-0.06,1.00,0.13,41.91
35,-0.06,1.00,0.13,43.53
35,-0.04,1.00,0.13,42.28
35,-0.02,1.01,0.13,42.28
35,-0.04,1.00,0.14,40.02
35,-0.04,1.00,0.12,39.46
35,-0.04,0.99,0.12,39.46
36,-0.06,1.00,0.13,46.55
36,-0.06,1.00,0.13,46.88
36,-0.02,0.99,0.12,47.67
36,-0.02,1.00,0.14,47.82
36,-0.03,1.00,0.14,48.29
36,-0.04,1.00,0.14,48.29
36,-0.06,0.99,0.13,43.79
36,-0.06,0.99,0.13,41.04
36,-0.05,1.00,0.13,41.04
36,-0.04,1.01,0.12,44.83
36,-0.04,1.01,0.14,44.86
36,-0.02,1.00,0.14,44.86
36,-0.04,1.00,0.14,47.60
36,-0.04,0.94,0.14,40.95
36,-0.05,1.00,0.14,41.18
36,-0.06,1.00,0.12,49.80
36,-0.06,0.99,0.13,47.04
36,-0.04,0.99,0.13,41.77
36,-0.03,1.00,0.13,41.77
36,-0.04,0.99,0.14,44.89
36,-0.04,0.99,0.14,43.43
36,-0.05,0.99,0.14,43.43
36,-0.06,0.99,0.13,46.81
36,-0.06,1.00,0.13,41.66
36,-0.04,1.00,0.13,41.49
36,-0.03,1.00,0.13,41.49
36,-0.03,1.00,0.13,42.85
36,-0.03,1.00,0.13,50.91
36,-0.04,1.00,0.14,50.91
36,-0.00,1.00,0.12,45.54
36,-0.07,1.00,0.06,43.60
36,-0.04,1.00,0.13,43.60
36,-0.04,1.00,0.13,42.47
36,-0.04,1.00,0.13,42.44
36,-0.03,1.00,0.13,42.95
36,-0.03,1.00,0.14,43.73
36,-0.03,0.99,0.13,47.26
36,-0.06,0.99,0.13,41.30
36,-0.05,1.00,0.12,41.30
36,-0.05,1.01,0.13,44.45
36,-0.03,1.01,0.13,45.53
36,-0.02,1.01,0.13,45.53
36,-0.04,0.99,0.14,41.08
36,-0.04,0.99,0.13,43.56
36,-0.05,1.00,0.13,43.56
36,-0.05,1.00,0.13,40.12
36,-0.05,1.01,0.13,39.69
36,-0.03,1.01,0.13,39.83
36,-0.02,1.00,0.13,44.53
36,-0.02,1.00,0.13,43.27
36,-0.03,1.00,0.13,44.91
36,-0.06,1.00,0.12,44.91
36,-0.05,1.00,0.11,43.15
36,-0.05,1.00,0.06,43.25
36,-0.05,1.01,0.13,43.25
36,-0.02,1.00,0.13,38.79
36,-0.02,1.00,0.13,42.95
36,-0.03,1.00,0.13,42.82
36,-0.04,1.00,0.13,42.04
36,-0.04,1.06,0.12,46.65
36,-0.05,1.00,0.12,36.48
36,-0.05,1.00,0.13,36.48
36,-0.05,1.00,0.12,36.88
36,-0.03,1.00,0.08,46.31
36,-0.03,0.99,0.14,46.31
36,-0.04,1.00,0.13,44.37
36,-0.04,1.00,0.14,45.57
36,-0.06,1.00,0.14,45.57
36,-0.05,1.00,0.12,43.93
36,-0.05,1.00,0.12,45.52
36,-0.04,1.00,0.12,46.02
36,-0.02,1.00,0.14,42.10
36,-0.02,1.00,0.14,42.00
36,-0.04,1.00,0.14,42.40
36,-0.06,1.01,0.12,42.40
36,-0.00,1.00,0.12,44.85
36,-0.06,1.00,0.12,45.63
36,-0.04,1.01,0.12,45.63
36,-0.03,1.00,0.14,42.96
36,-0.03,1.06,0.12,52.30
36,-0.03,0.99,0.12,52.36
36,-0.06,0.99,0.13,40.61
36,-0.06,1.00,0.12,49.38
36,-0.06,1.00,0.12,42.11
36,-0.04,1.00,0.12,42.11
36,-0.03,1.00,0.14,44.75
36,-0.03,1.00,0.13,39.32
36,-0.03,1.00,0.13,39.32
36,-0.05,1.00,0.14,46.22
36,-0.05,1.00,0.12,46.12
36,-0.05,1.00,0.12,46.12
36,-0.05,1.00,0.12,45.67
36,-0.05,0.94,0.12,43.51
36,-0.03,1.00,0.12,44.54
36,-0.02,1.00,0.12,44.54
36,-0.02,0.99,0.13,41.69
36,-0.04,0.99,0.19,46.13
36,-0.06,1.00,0.12,46.13
36,-0.05,1.00,0.13,38.75
36,-0.05,1.00,0.12,44.48
36,-0.03,1.00,0.12,44.48
36,-0.03,1.00,0.13,46.44
36,-0.03,1.00,0.13,42.42
36,-0.04,1.00,0.13,42.52
36,-0.05,1.00,0.12,37.03
36,-0.05,1.00,0.12,37.37
36,-0.06,1.00,0.12,44.24
36,-0.03,1.01,0.12,44.24
36,-0.02,1.01,0.13,43.66
36,-0.02,1.01,0.14,48.08
36,-0.03,0.99,0.14,48.08
36,-0.05,1.00,0.13,41.21
36,-0.05,1.00,0.12,48.22
36,-0.06,1.00,0.12,48.08
36,-0.04,1.00,0.13,42.59
36,-0.04,0.94,0.12,49.98
36,-0.02,1.00,0.12,44.64
36,-0.03,1.00,0.14,44.64
36,-0.03,1.00,0.13,45.77
36,-0.04,1.00,0.18,43.00
36,-0.06,1.00,0.12,43.00
36,-0.05,1.00,0.13,45.72
36,-0.05,1.00,0.13,42.02
36,-0.03,1.00,0.13,42.02
36,-0.03,1.00,0.13,44.96
36,-0.03,1.05,0.14,49.13
36,-0.05,0.98,0.14,49.28
36,-0.05,0.99,0.13,43.01
36,-0.05,0.99,0.12,43.12
36,-0.05,0.99,0.12,42.80
36,-0.03,1.00,0.13,42.80
36,-0.03,1.00,0.13,42.48
36,-0.03,1.00,0.18,44.38
36,-0.03,1.00,0.12,44.38
36,-0.05,1.00,0.14,44.79
36,-0.05,1.00,0.12,43.48
36,-0.06,1.00,0.12,43.47
36,-0.03,1.01,0.12,48.17
36,-0.03,1.00,0.14,48.58
36,-0.03,1.00,0.14,44.63
36,-0.03,1.00,0.13,44.63
36,-0.06,1.00,0.12,44.95
36,-0.06,1.00,0.07,43.86
36,-0.06,1.00,0.13,43.86
36,-0.04,1.00,0.13,46.41
36,-0.04,1.00,0.13,44.48
36,-0.03,1.00,0.13,44.48
36,-0.03,1.00,0.13,50.00
36,-0.03,1.00,0.14,49.13
36,-0.05,1.00,0.14,43.08
36,-0.06,1.00,0.13,43.08
36,-0.06,1.00,0.13,38.94
36,-0.05,1.00,0.13,45.05
36,-0.03,1.00,0.13,45.05
36,-0.03,1.00,0.12,45.12
36,-0.03,1.00,0.13,46.11
36,-0.04,1.00,0.13,46.11
36,-0.06,1.00,0.13,39.76
36,-0.06,1.01,0.12,43.68
36,-0.05,1.01,0.12,43.22
36,-0.03,0.99,0.13,47.92
36,-0.03,1.00,0.13,46.57
36,-0.03,1.00,0.13,42.47
36,-0.04,1.00,0.14,42.47
36,-0.05,1.00,0.13,45.75
36,-0.05,1.00,0.13,39.18
36,-0.05,0.99,0.13,39.18
36,-0.03,1.00,0.12,49.58
36,-0.03,1.00,0.14,42.72
36,-0.03,1.00,0.14,42.40
36,-0.03,1.00,0.14,45.53
36,-0.03,1.00,0.13,47.34
36,-0.06,1.00,0.13,45.29
36,-0.06,1.00,0.12,45.29
36,-0.06,1.00,0.13,45.21
36,-0.04,1.00,0.13,38.15
36,-0.02,1.01,0.13,38.15
36,-0.03,1.00,0.14,52.65
36,-0.03,1.00,0.12,49.99
36,-0.05,1.00,0.12,49.99
36,-0.06,0.99,0.12,41.38
36,-0.06,0.94,0.12,42.21
36,-0.04,1.00,0.12,41.91
36,-0.03,1.01,0.13,45.83
36,-0.03,1.00,0.13,45.55
36,-0.03,1.00,0.13,42.68
36,-0.05,0.99,0.13,42.68
36,-0.06,1.00,0.13,44.51
36,-0.06,1.00,0.13,43.73
36,-0.05,0.99,0.13,43.73
36,-0.03,1.00,0.13,41.00
36,-0.03,1.00,0.13,42.53
36,-0.03,1.00,0.13,42.44
36,-0.04,1.00,0.13,47.14
36,-0.04,1.00,0.13,40.76
36,-0.06,1.00,0.13,47.73
36,-0.04,1.00,0.11,47.73
36,-0.03,1.00,0.13,49.02
36,-0.03,1.00,0.13,45.71
36,-0.03,0.99,0.13,45.71
36,-0.03,0.99,0.13,41.60
36,-0.03,0.99,0.13,43.96
36,-0.05,1.00,0.13,43.96
36,-0.06,1.00,0.13,38.56
36,-0.06,1.06,0.12,45.54
36,-0.05,1.00,0.12,44.72
36,-0.02,1.00,0.14,44.72
36,-0.02,1.00,0.13,43.63
36,-0.03,1.00,0.19,46.08
36,-0.05,0.99,0.12,46.08
36,-0.06,1.00,0.13,43.70
36,-0.06,1.00,0.14,49.50
36,-0.05,1.00,0.14,49.50
36,-0.03,1.00,0.12,41.45
36,-0.03,1.06,0.13,42.68
36,-0.03,1.00,0.13,42.56
36,-0.04,1.00,0.14,42.56
36,-0.04,1.00,0.12,39.75
36,-0.06,1.00,0.12,49.23
36,-0.05,1.00,0.13,49.23
36,-0.04,1.00,0.12,42.02
36,-0.04,1.00,0.07,44.59
36,-0.03,1.00,0.13,44.59
36,-0.04,1.00,0.13,35.82
36,-0.04,1.00,0.12,43.78
36,-0.06,1.00,0.12,43.18
36,-0.06,1.00,0.12,43.18
36,-0.06,1.00,0.12,45.98
36,-0.04,1.00,0.12,40.52
36,-0.02,0.99,0.13,40.52
36,-0.02,1.00,0.13,45.82
36,-0.03,1.00,0.18,46.70
36,-0.06,1.00,0.12,46.70
37,-0.06,1.00,0.14,41.47
37,-0.05,0.99,0.14,41.47
37,-0.03,1.00,0.13,41.80
37,-0.03,1.06,0.13,40.92
37,-0.03,1.00,0.13,40.80
37,-0.05,1.00,0.13,46.28
37,-0.05,0.99,0.13,45.93
37,-0.06,0.99,0.13,42.97
37,-0.05,1.00,0.12,42.97
37,-0.03,1.00,0.12,46.54
37,-0.03,1.00,0.07,47.47
37,-0.03,1.00,0.13,47.47
37,-0.04,0.99,0.13,50.11
37,-0.04,0.99,0.13,46.53
37,-0.05,1.00,0.13,46.29
37,-0.04,1.00,0.12,40.80
37,-0.04,1.01,0.13,43.31
37,-0.03,1.01,0.13,43.19
37,-0.02,1.00,0.13,43.19
37,-0.02,1.01,0.13,44.67
37,-0.04,1.01,0.13,38.49
37,-0.06,1.00,0.13,38.49
37,-0.06,1.00,0.12,47.43
37,-0.06,1.00,0.13,47.95
37,-0.04,1.00,0.13,47.95
37,-0.03,0.99,0.13,46.16
37,-0.03,0.94,0.13,40.53
37,-0.04,1.00,0.13,40.51
37,-0.05,1.00,0.12,45.21
37,-0.05,1.00,0.12,46.18
37,-0.06,1.00,0.12,42.02
37,-0.05,1.00,0.13,42.02
37,-0.02,1.00,0.13,46.88
37,-0.02,1.00,0.13,40.62
37,-0.03,1.00,0.13,40.62
37,-0.05,0.99,0.13,37.55
37,-0.05,0.99,0.13,48.26
37,-0.07,1.00,0.13,47.78
37,-0.05,1.00,0.13,39.94
37,-0.05,0.99,0.14,44.40
37,-0.03,0.99,0.14,39.17
37,-0.01,1.02,0.10,39.17
37,-0.01,1.00,0.14,42.14
37,-0.07,1.00,0.15,44.48
37,-0.05,0.99,0.15,44.48
37,-0.03,1.02,0.10,44.94
37,-0.03,1.02,0.12,51.02
37,-0.03,0.99,0.12,51.02
37,-0.03,1.00,0.13,40.68
37,-0.03,1.00,0.15,41.88
37,-0.03,1.00,0.15,47.52
37,-0.06,1.00,0.13,47.52
37,-0.06,0.99,0.11,42.67
37,-0.05,0.99,0.07,52.01
37,-0.03,1.01,0.14,52.01
37,-0.04,1.01,0.13,45.73
37,-0.04,1.01,0.13,45.81
37,-0.05,0.99,0.13,45.81
37,-0.05,1.00,0.12,38.90
37,-0.05,1.06,0.15,46.05
37,-0.06,1.00,0.15,45.82
1,0.00,1.09,0.03,42.46
1,0.23,1.15,0.03,42.67
1,-0.02,0.84,0.18,42.67
1,-0.06,1.04,0.24,44.45
1,-0.25,1.04,0.21,44.38
1,-0.19,0.90,0.14,44.38
1,-0.02,0.99,0.07,43.68
1,-0.02,0.99,0.01,44.07
1,0.22,1.23,0.01,44.36
1,0.03,0.89,0.12,46.71
1,0.03,0.91,0.28,44.56
1,-0.17,0.98,0.28,43.20
1,-0.22,0.96,0.15,43.20
1,-0.22,0.87,0.09,44.59
1,-0.08,0.87,0.12,44.80
1,0.18,1.27,-0.00,44.80
1,0.10,0.94,0.08,43.69
1,0.10,0.94,0.28,38.18
1,-0.12,0.92,0.28,38.18
1,-0.25,1.04,0.16,41.48
1,-0.25,1.06,0.12,43.81
1,-0.15,0.81,0.12,44.17
1,0.12,1.25,0.03,44.96
1,0.12,1.01,0.04,43.91
1,0.14,1.01,0.04,47.79
1,-0.07,0.88,0.25,47.79
1,-0.12,1.08,0.18,45.71
1,-0.24,1.08,0.13,42.03
1,-0.18,0.81,0.13,42.03
1,0.08,1.17,0.05,40.09
1,0.08,1.15,0.01,44.98
1,0.19,1.09,0.01,45.00
1,0.01,0.85,0.20,39.51
1,0.01,1.07,0.22,47.10
1,-0.23,1.07,0.22,45.72
1,-0.21,0.87,0.15,45.72
1,-0.22,1.06,0.08,44.86
1,0.03,1.06,0.11,46.89
1,0.17,1.16,-0.02,46.89
1,0.04,0.87,0.16,40.13
1,0.04,0.87,0.25,44.71
1,-0.20,1.02,0.25,44.71
1,-0.24,0.96,0.15,48.99
1,-0.24,0.96,0.10,47.52
1,-0.03,0.96,0.10,47.07
1,0.13,1.22,-0.02,42.37
1,0.13,0.92,0.12,47.86
1,0.09,0.92,0.07,42.42
1,-0.13,0.94,0.26,42.42
1,-0.18,1.03,0.15,46.26
1,-0.24,1.03,0.11,41.36
1,-0.08,0.88,0.11,41.36
1,0.09,1.21,0.01,43.52
1,0.09,1.24,0.09,38.78
1,0.18,0.99,0.09,39.02
1,-0.08,0.87,0.25,46.85
1,-0.08,1.07,0.17,40.74
1,-0.26,1.07,0.17,40.24
1,-0.12,0.85,0.13,40.24
1,-0.10,1.16,0.03,44.76
1,0.03,1.16,0.05,49.37
1,0.20,1.08,0.05,49.37
1,-0.03,0.86,0.20,47.53
1,-0.03,0.86,0.21,45.08
1,-0.26,1.05,0.21,45.08
1,-0.16,0.87,0.15,40.99
1,-0.16,0.87,0.04,39.04
1,-0.01,1.06,0.04,42.40
1,0.23,1.17,0.01,42.40
1,0.23,0.88,0.15,41.85
1,0.04,0.88,0.14,43.85
1,-0.22,1.01,0.26,43.85
1,-0.20,0.93,0.15,42.29
1,-0.20,0.93,0.08,46.96
1,-0.06,0.94,0.08,46.96
1,0.18,1.23,-0.01,39.71
1,0.18,1.24,0.11,49.32
1,0.07,0.93,0.11,49.74
1,-0.17,0.95,0.28,47.39
1,-0.17,1.01,0.15,41.50
1,-0.23,1.01,0.15,45.80
1,-0.12,0.85,0.11,45.80
1,-0.12,1.23,0.01,43.87
1,0.13,1.23,0.02,42.29
1,0.12,0.99,0.08,42.29
1,-0.10,0.88,0.27,44.49
1,-0.10,0.88,0.17,47.08
1,-0.24,1.05,0.17,47.08
1,-0.16,0.82,0.12,44.28
1,-0.16,0.82,0.02,41.19
1,0.09,1.20,0.02,39.47
1,0.18,1.05,0.06,39.47
1,0.18,0.86,0.22,36.80
1,-0.05,0.86,0.20,43.43
1,-0.23,1.07,0.20,43.43
1,-0.21,0.83,0.14,39.80
1,-0.21,0.83,0.05,40.85
1,0.05,1.11,0.05,40.85
1,0.19,1.13,0.02,45.09
1,0.19,1.17,0.17,48.37
1,0.01,0.86,0.17,48.26
1,-0.21,1.05,0.23,49.82
1,-0.21,0.91,0.13,40.25
1,-0.22,0.91,0.13,39.38
1,-0.01,1.00,0.08,39.38
1,-0.02,1.19,0.01,41.65
1,0.17,1.19,0.00,39.82
1,0.05,0.89,0.13,39.82
1,-0.15,0.98,0.25,40.97
1,-0.15,0.98,0.15,42.29
1,-0.25,0.99,0.15,42.88
1,-0.06,0.92,0.10,50.71
1,-0.06,0.91,0.01,50.62
1,0.11,1.22,0.01,40.03
1,0.12,0.94,0.08,40.03
1,0.12,0.91,0.26,42.72
1,-0.08,0.91,0.28,39.84
1,-0.25,1.04,0.16,39.84
1,-0.30,0.86,0.12,47.22
1,-0.11,0.86,0.02,40.23
1,0.06,1.21,0.02,40.23
1,0.17,1.01,0.05,42.83
1,0.17,1.05,0.23,43.91
1,-0.04,0.87,0.23,43.96
1,-0.27,1.05,0.20,41.61
1,-0.27,0.86,0.14,45.38
1,-0.16,0.86,0.14,44.68
1,0.01,1.12,0.05,44.68
1,0.01,1.10,0.02,40.51
1,0.20,1.10,0.00,38.78
1,0.02,0.89,0.19,38.78
1,-0.25,1.03,0.24,45.99
1,-0.25,1.03,0.14,44.22
1,-0.18,0.90,0.14,44.03
1,-0.03,1.02,0.07,43.25
1,-0.03,1.05,-0.01,39.68
1,0.18,1.17,-0.01,48.41
1,0.05,0.91,0.13,48.41
1,0.05,0.97,0.24,42.66
1,-0.19,0.97,0.21,48.27
1,-0.21,0.98,0.15,48.27
1,-0.20,0.91,0.09,39.01
1,-0.08,0.91,-0.00,39.37
1,0.14,1.22,-0.00,39.37
1,0.11,0.97,0.11,43.40
1,0.11,0.98,0.26,46.19
1,-0.14,0.92,0.26,46.89
1,-0.22,1.03,0.16,41.41
1,-0.22,0.84,0.12,45.81
1,-0.13,0.84,0.12,40.55
1,0.09,1.20,0.02,40.55
1,0.10,1.02,0.07,45.94
1,0.17,1.02,0.11,46.64
1,-0.08,0.87,0.24,46.64
1,-0.23,1.07,0.19,46.23
1,-0.23,1.07,0.14,43.63
1,-0.17,0.84,0.14,43.45
1,0.04,1.14,0.04,45.80
1,0.04,1.16,0.05,45.23
1,0.20,1.09,0.05,45.48
1,-0.02,0.86,0.19,45.48
1,-0.02,1.07,0.24,42.04
1,-0.22,1.07,0.20,40.01
1,-0.20,0.88,0.14,40.01
1,-0.25,1.04,0.06,44.52
1,0.00,1.04,0.02,41.44
1,0.20,1.17,0.02,41.44
1,0.02,0.87,0.13,39.94
1,0.02,0.82,0.25,39.70
1,-0.17,1.01,0.25,39.46
1,-0.23,0.95,0.15,42.60
1,-0.23,0.95,0.08,42.19
1,-0.04,0.95,0.08,38.90
1,0.15,1.23,0.00,38.90
1,0.13,0.90,0.10,44.68
1,0.07,0.90,0.08,41.29
1,-0.11,0.94,0.26,41.29
1,-0.24,1.02,0.16,36.47
1,-0.24,1.02,0.10,44.07
1,-0.09,0.87,0.10,44.58
1,0.09,1.23,0.03,44.58
1,0.09,1.21,0.06,45.91
1,0.13,0.96,0.06,39.85
1,-0.06,0.90,0.26,39.85
1,-0.06,1.05,0.17,43.49
1,-0.25,1.05,0.13,44.36
1,-0.14,0.86,0.13,44.36
1,-0.14,1.18,0.05,47.10
1,0.05,1.18,0.04,41.88
1,0.16,1.04,0.04,41.88
1,-0.01,0.88,0.23,45.66
1,-0.01,0.92,0.20,42.51
1,-0.25,1.05,0.20,42.48
1,-0.17,0.87,0.14,43.26
1,-0.17,1.10,0.06,40.47
1,0.01,1.10,0.06,39.88
1,0.18,1.12,0.00,39.88
1,0.17,0.90,0.17,41.44
1,0.05,0.90,0.18,37.24
1,-0.22,1.00,0.25,37.24
1,-0.20,0.93,0.15,40.37
1,-0.20,0.93,0.09,38.74
1,-0.04,0.99,0.09,38.60
1,0.14,1.17,-0.01,41.73
1,0.14,1.13,0.14,43.85
1,0.08,0.94,0.14,41.02
1,-0.16,0.95,0.25,41.02
1,-0.16,1.00,0.15,43.48
1,-0.22,1.00,0.17,45.39
1,-0.09,0.90,0.11,45.39
1,0.10,1.20,-0.01,47.18
1,0.10,1.20,0.10,39.39
1,0.14,1.00,0.10,39.39
1,-0.10,0.91,0.23,41.46
1,-0.10,0.92,0.17,41.93
1,-0.22,1.05,0.17,41.92
1,-0.13,0.86,0.13,45.84
1,-0.13,1.15,0.03,44.37
1,0.04,1.15,0.03,46.88
1,0.19,1.06,0.07,46.88
1,0.19,0.88,0.21,41.19
1,-0.06,0.88,0.20,44.39
1,-0.23,1.06,0.20,44.39
1,-0.18,0.86,0.14,49.43
1,-0.18,0.86,0.05,42.40
2,-0.01,1.20,0.02,43.24
2,0.18,1.20,0.11,51.51
2,0.03,0.89,0.11,51.51
2,-0.14,0.97,0.27,42.69
2,-0.14,0.99,0.14,46.71
2,-0.22,0.99,0.14,46.27
2,-0.07,0.91,0.09,40.00
2,-0.07,1.23,0.02,42.60
2,0.13,1.23,0.02,42.83
2,0.09,0.93,0.08,42.83
2,0.10,0.92,0.26,46.58
2,-0.09,0.92,0.29,43.23
2,-0.23,1.02,0.17,43.23
2,-0.13,0.86,0.11,41.40
2,-0.13,0.86,0.03,45.86
2,0.08,1.21,0.03,45.50
2,0.13,0.99,0.07,42.37
2,0.13,0.95,0.23,39.50
2,-0.03,0.89,0.23,48.18
2,-0.23,1.05,0.17,48.18
2,-0.23,0.86,0.12,42.28
2,-0.16,0.86,0.12,42.00
2,0.05,1.15,0.06,42.00
2,0.16,1.08,0.03,47.29
2,0.16,1.08,0.20,44.13
2,0.02,0.89,0.20,44.13
2,-0.22,1.02,0.21,39.52
2,-0.22,1.02,0.13,43.12
2,-0.19,0.89,0.13,43.02
2,0.00,1.05,0.08,42.24
2,0.00,1.14,-0.00,42.52
2,0.15,1.14,-0.00,41.21
2,0.06,0.92,0.15,41.21
2,0.01,0.98,0.25,39.74
2,-0.18,0.98,0.20,43.05
2,-0.21,0.95,0.14,43.05
2,-0.05,0.95,0.09,40.45
2,-0.05,0.95,0.01,40.29
2,0.11,1.18,0.01,40.47
2,0.11,0.96,0.11,42.03
2,0.11,1.00,0.25,46.07
2,-0.12,0.93,0.25,42.69
2,-0.22,1.02,0.15,42.69
2,-0.22,0.89,0.12,45.21
2,-0.10,0.89,0.08,43.26
2,0.06,1.18,0.02,43.26
2,0.16,1.02,0.09,45.67
2,0.16,1.02,0.23,40.84
2,-0.07,0.90,0.23,40.84
2,-0.24,1.04,0.18,49.05
2,-0.24,1.06,0.14,46.96
2,-0.14,0.87,0.14,47.50
2,0.01,1.12,0.03,47.50
2,0.01,1.08,0.05,41.46
2,0.20,1.08,0.05,41.41
2,-0.02,0.89,0.19,41.41
2,-0.03,1.05,0.23,46.24
2,-0.22,1.05,0.14,40.41
2,-0.18,0.90,0.14,40.41
2,-0.02,1.03,0.06,41.05
2,-0.02,1.03,0.02,45.68
2,0.19,1.15,0.02,45.73
2,0.03,0.90,0.15,48.86
2,0.03,1.00,0.26,39.61
2,-0.18,1.00,0.26,48.18
2,-0.20,0.95,0.14,48.18
2,-0.19,0.95,0.08,40.15
2,-0.07,0.95,0.08,41.29
2,0.16,1.20,0.02,41.29
2,0.06,0.92,0.10,40.28
2,0.06,0.92,0.26,39.51
2,-0.12,0.94,0.26,39.51
2,-0.21,1.01,0.15,38.33
2,-0.21,1.01,0.10,40.63
2,-0.12,0.88,0.10,40.62
2,0.11,1.21,0.02,50.80
2,0.11,0.98,0.08,41.19
2,0.12,0.98,0.12,42.66
2,-0.06,0.89,0.25,42.66
2,-0.09,1.04,0.17,43.86
2,-0.22,1.04,0.11,43.97
2,-0.16,0.85,0.11,43.97
2,0.05,1.18,0.05,43.31
2,0.05,1.17,0.05,44.84
2,0.16,1.05,0.05,44.70
2,-0.01,0.88,0.21,43.13
2,-0.01,1.04,0.21,40.36
2,-0.21,1.04,0.21,48.49
2,-0.19,0.86,0.14,48.49
2,-0.22,1.09,0.05,42.81
2,0.03,1.09,0.02,43.04
2,0.16,1.11,0.02,43.04
2,0.04,0.89,0.17,41.67
2,0.04,0.89,0.24,39.14
2,-0.19,1.01,0.24,39.14
2,-0.22,0.92,0.14,38.37
2,-0.22,0.88,0.07,47.91
2,-0.02,1.01,0.07,40.62
2,0.14,1.16,0.01,40.62
2,0.14,0.93,0.12,44.32
2,0.08,0.93,0.07,43.16
2,-0.14,0.97,0.26,43.16
2,-0.17,0.99,0.15,39.23
2,-0.24,0.99,0.10,42.95
2,-0.08,0.92,0.10,42.95
2,0.09,1.18,0.01,42.78
2,0.09,1.16,0.09,45.71
2,0.13,0.97,0.09,46.03
2,-0.07,0.93,0.24,44.47
2,-0.07,1.03,0.16,41.21
2,-0.24,1.03,0.16,40.93
2,-0.12,0.87,0.13,40.93
2,-0.10,1.16,0.02,43.52
2,0.03,1.16,0.00,41.38
2,0.17,1.04,0.07,41.38
2,-0.03,0.91,0.21,44.68
2,-0.03,0.91,0.20,43.56
2,-0.24,1.04,0.20,43.56
2,-0.16,0.88,0.14,43.04
2,-0.16,0.91,0.06,44.78
2,-0.01,1.10,0.06,45.76
2,0.19,1.10,0.04,45.76
2,0.19,0.90,0.18,47.09
2,0.03,0.90,0.17,37.20
2,-0.21,1.02,0.23,37.20
2,-0.24,0.92,0.14,44.80
2,-0.18,0.92,0.07,41.35
2,-0.06,1.00,0.07,41.35
2,0.17,1.15,0.01,44.81
2,0.17,1.18,0.13,42.04
2,0.05,0.93,0.13,42.07
2,-0.16,0.97,0.25,42.07
2,-0.16,0.99,0.15,45.71
2,-0.20,0.99,0.15,48.09
2,-0.09,0.92,0.08,48.09
2,-0.07,1.19,0.02,43.40
2,0.12,1.19,0.03,49.37
2,0.10,0.97,0.09,49.37
2,-0.10,0.93,0.25,38.28
2,-0.10,0.93,0.15,41.77
2,-0.20,1.03,0.15,41.88
2,-0.13,0.88,0.11,44.23
2,-0.13,0.88,0.02,41.19
2,0.08,1.19,0.02,45.22
2,0.15,1.02,0.08,45.22
2,0.15,0.88,0.23,44.86
2,-0.05,0.88,0.25,47.72
2,-0.21,1.05,0.18,47.72
2,-0.24,0.87,0.13,43.33
2,-0.18,0.87,0.04,46.92
2,0.03,1.13,0.04,46.92
2,0.17,1.08,0.05,44.44
2,0.17,1.07,0.20,42.44
2,0.00,0.88,0.20,42.71
2,-0.20,1.02,0.23,46.63
2,-0.20,0.89,0.14,43.78
2,-0.19,0.89,0.14,53.42
2,-0.01,1.04,0.07,53.42
2,-0.03,1.16,0.02,46.23
2,0.16,1.16,0.01,51.90
2,0.04,0.90,0.14,51.90
2,-0.15,1.00,0.25,45.13
2,-0.15,1.00,0.14,46.21
2,-0.22,0.95,0.14,46.92
2,-0.07,0.95,0.09,40.65
2,-0.07,0.94,0.02,42.11
2,0.11,1.19,0.02,44.15
2,0.08,0.94,0.11,44.15
2,0.08,0.95,0.25,42.35
2,-0.10,0.95,0.21,45.80
2,-0.23,0.99,0.14,45.80
2,-0.09,0.89,0.11,41.61
2,-0.09,0.89,0.02,42.76
2,0.07,1.18,0.02,42.76
2,0.14,0.99,0.08,46.14
2,0.14,0.97,0.23,41.91
2,-0.06,0.91,0.23,42.04
2,-0.23,1.04,0.17,41.26
2,-0.23,0.88,0.12,40.39
2,-0.13,0.88,0.12,41.87
2,0.02,1.14,0.03,41.87
2,0.04,1.06,0.06,40.56
2,0.17,1.06,0.01,40.88
2,0.02,0.91,0.20,40.88
2,-0.23,1.03,0.20,43.16
2,-0.23,1.03,0.14,47.08
2,-0.17,0.90,0.14,47.52
2,-0.02,1.06,0.07,47.52
2,-0.02,1.11,0.02,45.20
2,0.17,1.11,0.02,38.96
2,0.05,0.93,0.16,38.96
2,0.00,1.00,0.23,44.03
2,-0.19,1.00,0.21,43.43
2,-0.19,0.95,0.15,43.43
2,-0.06,0.97,0.08,40.93
2,-0.06,0.97,0.02,51.32
2,0.13,1.15,0.02,51.32
2,0.08,0.96,0.12,45.39
2,0.08,0.95,0.23,43.85
2,-0.13,0.95,0.23,44.33
2,-0.19,1.01,0.15,42.77
2,-0.19,0.91,0.11,42.89
2,-0.11,0.91,0.11,43.71
2,0.08,1.17,0.01,43.71
2,0.07,0.99,0.10,40.69
2,0.14,0.99,0.24,41.63
2,-0.08,0.90,0.24,41.63
2,-0.21,1.04,0.16,48.39
2,-0.21,1.01,0.11,48.11
2,-0.14,0.88,0.11,48.22
2,0.04,1.15,0.02,45.87
2,0.04,1.06,0.07,44.18
2,0.16,1.06,0.07,43.13
2,-0.03,0.89,0.21,43.13
2,-0.02,1.04,0.20,39.69
2,-0.21,1.04,0.20,46.62
2,-0.18,0.89,0.13,46.62
2,0.01,1.08,0.05,40.91
2,0.01,1.08,0.04,47.84
2,0.18,1.11,0.04,47.84
2,0.02,0.89,0.15,47.27
2,0.02,0.89,0.24,42.89
2,-0.17,1.01,0.24,42.58
2,-0.21,0.92,0.14,42.58
2,-0.21,1.00,0.06,43.35
2,-0.04,1.00,0.06,44.38
2,0.15,1.17,0.02,44.38
2,0.17,0.93,0.11,39.28
2,0.05,0.93,0.25,39.22
2,-0.13,0.98,0.25,39.22
2,-0.22,0.98,0.14,46.66
2,-0.22,0.97,0.09,45.71
2,-0.08,0.91,0.09,45.43
3,0.05,1.17,0.07,44.99
3,0.14,1.02,0.07,44.99
3,-0.02,0.91,0.23,41.60
3,-0.02,0.91,0.19,47.85
3,-0.23,1.04,0.19,48.28
3,-0.16,0.88,0.12,42.80
3,-0.16,1.11,0.06,45.39
3,0.01,1.11,0.06,45.39
3,0.15,1.07,0.04,45.39
3,0.16,0.92,0.18,42.27
3,0.04,0.92,0.16,44.28
3,-0.20,1.01,0.22,44.28
3,-0.19,0.92,0.14,43.62
3,-0.19,0.92,0.07,49.53
3,-0.03,1.04,0.07,50.02
3,0.14,1.12,0.03,42.19
3,0.14,1.06,0.12,44.42
3,0.06,0.94,0.12,45.62
3,-0.15,0.99,0.23,45.62
3,-0.14,0.98,0.15,45.91
3,-0.21,0.98,0.16,45.90
3,-0.08,0.95,0.10,45.90
3,0.09,1.16,0.03,45.38
3,0.09,1.16,0.12,44.86
3,0.11,0.97,0.12,44.86
3,-0.11,0.93,0.23,42.84
3,-0.11,0.89,0.16,47.00
3,-0.21,1.02,0.16,47.67
3,-0.12,0.90,0.11,39.05
3,-0.12,1.15,0.02,46.30
3,0.04,1.15,0.02,42.94
3,0.15,1.03,0.10,42.94
3,0.14,0.90,0.21,44.97
3,-0.05,0.90,0.23,40.16
3,-0.21,1.03,0.17,40.16
3,-0.15,0.89,0.13,44.66
3,-0.15,0.89,0.04,46.85
3,0.01,1.11,0.04,46.21
3,0.17,1.08,0.06,41.51
3,0.17,1.09,0.19,42.32
3,-0.00,0.91,0.19,40.10
3,-0.18,1.03,0.21,40.10
3,-0.19,0.91,0.13,45.55
3,-0.19,0.91,0.18,44.62
3,-0.02,1.04,0.06,44.62
3,0.16,1.14,0.04,43.96
3,0.16,1.14,0.13,41.22
3,0.02,0.92,0.13,41.22
3,-0.15,0.98,0.25,43.08
3,-0.15,0.96,0.15,42.25
3,-0.20,0.96,0.15,42.50
3,-0.08,0.96,0.08,40.15
3,-0.08,1.18,0.03,39.14
3,0.13,1.18,0.03,37.18
3,0.07,0.95,0.11,37.18
3,0.09,0.95,0.24,39.42
3,-0.10,0.95,0.22,47.78
3,-0.22,1.01,0.15,47.78
3,-0.11,0.90,0.11,45.11
3,-0.11,0.88,0.03,47.72
3,0.08,1.19,0.03,48.25
3,0.11,1.00,0.08,49.03
3,0.11,0.92,0.24,44.87
3,-0.04,0.92,0.24,44.43
3,-0.22,1.04,0.16,44.43
3,-0.21,0.87,0.12,42.31
3,-0.15,0.87,0.11,43.14
3,0.04,1.14,0.05,43.14
3,0.14,1.04,0.04,47.86
3,0.14,1.04,0.21,49.35
3,0.00,0.91,0.21,49.35
3,-0.21,1.03,0.20,44.02
3,-0.21,1.01,0.14,38.97
3,-0.18,0.88,0.14,41.18
3,-0.01,1.08,0.06,41.18
3,-0.01,1.09,0.03,42.81
3,0.14,1.09,0.04,41.78
3,0.04,0.93,0.16,41.78
3,0.02,1.00,0.22,43.81
3,-0.17,1.00,0.14,45.71
3,-0.20,0.95,0.14,45.71
3,-0.04,1.00,0.08,46.59
3,-0.04,0.94,0.03,43.69
3,0.11,1.13,0.03,43.29
3,0.08,0.95,0.13,40.94
3,0.08,0.96,0.24,39.50
3,-0.12,0.96,0.24,46.93
3,-0.21,0.99,0.14,46.93
3,-0.21,0.93,0.11,45.27
3,-0.09,0.93,0.08,40.99
3,0.06,1.16,0.02,40.99
3,0.12,0.99,0.11,42.40
3,0.12,0.99,0.22,40.96
3,-0.06,0.92,0.22,40.96
3,-0.22,1.02,0.17,45.61
3,-0.22,1.03,0.11,43.14
3,-0.12,0.90,0.11,45.27
3,0.02,1.12,0.03,45.27
3,0.02,1.04,0.08,42.53
3,0.16,1.04,0.09,41.98
3,-0.03,0.91,0.21,41.98
3,-0.03,1.03,0.19,40.65
3,-0.21,1.03,0.13,45.27
3,-0.16,0.91,0.13,45.27
3,-0.02,1.07,0.06,50.38
3,-0.02,1.10,0.05,41.69
3,0.18,1.10,0.05,42.14
3,0.01,0.91,0.16,46.06
3,0.01,1.00,0.22,42.63
3,-0.18,1.00,0.22,46.51
3,-0.18,0.94,0.13,46.51
3,-0.18,0.99,0.08,46.10
3,-0.06,0.99,0.10,41.94
3,0.14,1.14,0.04,41.94
3,0.05,0.94,0.12,43.80
3,0.05,0.94,0.24,44.29
3,-0.13,0.97,0.24,43.88
3,-0.20,0.98,0.15,42.31
3,-0.20,0.99,0.09,45.23
3,-0.09,0.93,0.09,47.44
3,0.10,1.17,0.03,47.44
3,0.10,0.98,0.09,39.24
3,0.11,0.98,0.12,40.44
3,-0.08,0.94,0.24,40.44
3,-0.08,1.02,0.16,49.01
3,-0.20,1.02,0.11,41.29
3,-0.13,0.88,0.11,41.29
3,0.06,1.16,0.03,42.96
3,0.06,1.14,0.08,46.20
3,0.14,1.02,0.08,46.78
3,-0.03,0.91,0.21,41.30
3,-0.03,1.04,0.19,40.18
3,-0.21,1.04,0.19,45.62
3,-0.17,0.89,0.12,45.62
3,-0.18,1.12,0.06,45.32
3,0.01,1.12,0.06,43.25
3,0.15,1.07,0.06,43.25
3,0.01,0.90,0.17,43.65
3,0.01,0.90,0.22,38.73
3,-0.19,1.02,0.22,38.97
3,-0.20,0.92,0.14,51.51
3,-0.20,0.91,0.07,43.58
3,-0.03,1.03,0.07,43.21
3,0.13,1.12,0.03,43.21
3,0.13,0.93,0.13,45.13
3,0.05,0.93,0.18,46.60
3,-0.14,0.97,0.24,46.60
3,-0.22,0.97,0.14,46.98
3,-0.22,0.97,0.09,41.36
3,-0.06,0.97,0.09,41.36
3,0.08,1.14,0.03,43.84
3,0.08,1.16,0.12,38.89
3,0.09,0.97,0.12,38.98
3,-0.09,0.93,0.23,48.38
3,-0.09,1.00,0.16,45.53
3,-0.21,1.00,0.16,45.21
3,-0.10,0.92,0.11,45.21
3,-0.08,1.15,0.02,45.14
3,0.04,1.15,0.02,41.37
3,0.14,1.01,0.08,41.37
3,-0.03,0.91,0.22,39.55
3,-0.03,0.91,0.17,46.77
3,-0.22,1.02,0.17,46.59
3,-0.14,0.91,0.12,45.80
3,-0.14,1.11,0.05,40.97
3,0.00,1.11,0.05,42.93
3,0.15,1.06,0.07,42.93
3,0.13,0.92,0.20,43.90
3,0.01,0.92,0.21,43.08
3,-0.21,1.02,0.21,43.08
3,-0.17,0.92,0.13,44.18
3,-0.17,0.92,0.07,44.68
3,-0.03,1.04,0.07,44.68
3,0.14,1.11,0.05,44.60
3,0.14,1.07,0.15,40.91
3,0.04,0.94,0.15,40.91
3,-0.16,0.99,0.23,41.70
3,-0.16,0.96,0.15,43.93
3,-0.18,0.96,0.15,44.28
3,-0.08,0.96,0.08,44.28
3,-0.07,1.15,0.03,39.42
3,0.12,1.15,0.05,44.68
3,0.08,0.97,0.11,44.68
3,-0.12,0.95,0.23,46.72
3,-0.12,0.95,0.15,44.76
3,-0.19,1.00,0.15,44.65
3,-0.10,0.92,0.09,42.29
3,-0.10,1.15,0.04,39.76
3,0.07,1.15,0.04,45.30
3,0.12,1.01,0.10,45.30
3,0.07,0.91,0.24,44.38
3,-0.06,0.91,0.22,44.47
3,-0.20,1.04,0.16,44.47
3,-0.15,0.90,0.12,38.82
3,-0.15,0.90,0.04,41.43
3,0.03,1.13,0.04,41.43
3,0.15,1.05,0.08,41.85
3,0.15,1.03,0.19,46.45
3,-0.01,0.91,0.19,46.63
3,-0.19,1.03,0.20,44.28
3,-0.19,0.90,0.13,45.70
3,-0.19,0.90,0.13,41.40
3,-0.01,1.07,0.06,41.40
3,-0.03,1.09,0.05,48.02
3,0.16,1.09,0.14,50.09
3,0.02,0.92,0.14,50.09
3,-0.16,1.01,0.24,46.58
3,-0.16,1.01,0.13,43.38
3,-0.21,0.94,0.13,43.59
3,-0.04,0.99,0.08,42.80
3,-0.04,1.14,0.04,42.64
3,0.12,1.14,0.04,43.74
3,0.07,0.94,0.11,43.74
3,0.08,0.97,0.24,46.67
3,-0.11,0.97,0.21,42.51
3,-0.21,0.98,0.14,42.51
3,-0.08,0.94,0.09,42.69
3,-0.08,0.94,0.04,41.90
3,0.07,1.16,0.04,41.83
3,0.10,0.98,0.10,42.61
3,0.10,0.99,0.23,42.77
3,-0.06,0.93,0.23,42.96
3,-0.21,1.02,0.15,42.96
3,-0.21,0.90,0.11,40.97
3,-0.12,0.90,0.10,43.32
3,0.02,1.14,0.04,43.32
3,0.01,1.01,0.08,44.80
3,0.14,1.01,0.21,47.41
3,-0.01,0.92,0.21,47.41
3,-0.21,1.02,0.19,37.57
3,-0.21,1.04,0.13,42.65
3,-0.15,0.91,0.13,42.75
3,-0.00,1.10,0.06,44.31
4,0.12,1.11,0.03,48.63
4,0.06,0.95,0.13,46.34
4,0.06,0.97,0.22,48.38
4,-0.14,0.97,0.22,47.98
4,-0.19,0.97,0.15,43.28
4,-0.19,0.95,0.10,43.45
4,-0.08,0.95,0.10,42.16
4,0.09,1.14,0.03,42.16
4,0.11,0.98,0.12,45.49
4,0.11,0.98,0.10,49.71
4,-0.09,0.93,0.22,49.71
4,-0.20,1.01,0.16,44.95
4,-0.20,1.01,0.11,50.38
4,-0.12,0.90,0.11,50.83
4,0.04,1.13,0.02,46.92
4,0.04,1.02,0.09,44.82
4,0.14,1.02,0.09,44.60
4,-0.04,0.92,0.22,44.60
4,-0.06,1.02,0.18,44.40
4,-0.19,1.02,0.18,38.64
4,-0.16,0.89,0.12,38.64
4,0.00,1.10,0.05,46.79
4,0.00,1.10,0.07,49.09
4,0.15,1.08,0.07,49.09
4,0.01,0.92,0.17,43.89
4,0.01,0.90,0.20,49.79
4,-0.17,1.02,0.20,49.36
4,-0.19,0.93,0.13,42.31
4,-0.19,1.04,0.07,41.10
4,-0.04,1.04,0.07,43.79
4,0.14,1.12,0.05,43.79
4,0.17,0.93,0.13,43.15
4,0.04,0.93,0.23,44.91
4,-0.13,0.99,0.23,44.91
4,-0.20,0.96,0.13,46.01
4,-0.20,0.96,0.08,44.68
4,-0.07,0.96,0.08,45.14
4,0.10,1.15,0.04,45.14
4,0.10,0.97,0.10,45.77
4,0.08,0.97,0.10,47.87
4,-0.08,0.94,0.23,47.87
4,-0.08,1.00,0.15,47.14
4,-0.21,1.00,0.17,43.23
4,-0.10,0.92,0.10,43.23
4,0.05,1.15,0.04,46.92
4,0.05,1.15,0.08,47.93
4,0.12,0.99,0.08,47.93
4,-0.03,0.93,0.23,47.04
4,-0.03,0.89,0.17,43.20
4,-0.22,1.01,0.17,43.45
4,-0.15,0.91,0.12,43.45
4,-0.15,1.13,0.05,47.32
4,0.02,1.13,0.05,46.89
4,0.12,1.04,0.07,46.89
4,0.08,0.93,0.20,43.31
4,0.02,0.93,0.19,41.23
4,-0.20,1.01,0.19,41.23
4,-0.17,0.92,0.14,44.67
4,-0.17,0.93,0.07,43.36
4,-0.02,1.06,0.07,43.12
4,0.13,1.09,0.04,45.47
4,0.13,0.95,0.16,45.68
4,0.04,0.95,0.16,42.73
4,-0.16,0.98,0.21,42.73
4,-0.13,0.94,0.14,46.37
4,-0.19,0.94,0.14,42.12
4,-0.05,1.00,0.08,42.12
4,0.09,1.13,0.03,40.46
4,0.09,1.13,0.12,46.02
4,0.07,0.97,0.12,45.72
4,-0.11,0.95,0.23,45.72
4,-0.11,1.00,0.14,40.79
4,-0.20,1.00,0.14,42.38
4,-0.10,0.92,0.10,42.38
4,-0.10,1.13,0.03,46.30
4,0.06,1.13,0.04,39.39
4,0.13,1.01,0.10,39.39
4,0.13,0.93,0.22,42.78
4,-0.06,0.93,0.15,45.39
4,-0.20,1.02,0.15,45.39
4,-0.13,0.91,0.13,43.08
4,-0.13,0.92,0.04,44.56
4,0.01,1.11,0.04,44.02
4,0.15,1.05,0.07,46.37
4,0.15,0.92,0.20,43.71
4,-0.01,0.92,0.20,46.77
4,-0.19,1.01,0.19,46.77
4,-0.22,0.92,0.12,38.99
4,-0.16,0.92,0.12,42.78
4,-0.03,1.07,0.05,42.78
4,0.15,1.09,0.06,45.58
4,0.15,1.09,0.15,39.95
4,0.03,0.94,0.15,40.24
4,-0.16,1.00,0.23,38.67
4,-0.16,1.01,0.14,47.29
4,-0.19,0.95,0.14,40.78
4,-0.07,1.00,0.08,40.78
4,-0.07,1.13,0.04,48.53
4,0.12,1.13,0.06,47.10
4,0.05,0.95,0.12,47.10
4,0.02,0.96,0.23,42.47
4,-0.11,0.96,0.13,45.75
4,-0.19,0.98,0.13,45.75
4,-0.09,0.94,0.10,39.40
4,-0.09,0.96,0.04,42.46
4,0.08,1.15,0.04,42.79
4,0.10,0.97,0.11,45.14
4,0.10,0.92,0.23,39.96
4,-0.06,0.92,0.23,42.57
4,-0.20,1.02,0.15,42.57
4,-0.20,0.90,0.10,40.09
4,-0.13,0.90,0.11,43.96
4,0.03,1.14,0.05,43.96
4,0.12,1.01,0.07,39.42
4,0.12,1.01,0.22,39.82
4,-0.01,0.92,0.22,39.63
4,-0.21,1.02,0.18,41.20
4,-0.21,1.03,0.13,45.01
4,-0.16,0.90,0.13,44.17
4,0.00,1.10,0.06,44.17
4,0.00,1.06,0.06,43.87
4,0.13,1.06,0.05,40.63
4,0.03,0.93,0.18,40.63
4,0.02,1.00,0.21,39.56
4,-0.17,1.00,0.13,42.24
4,-0.18,0.94,0.13,42.24
4,-0.04,1.03,0.09,43.82
4,-0.04,1.04,0.05,48.23
4,0.11,1.10,0.05,47.73
4,0.05,0.95,0.15,43.81
4,0.05,0.98,0.23,42.77
4,-0.13,0.98,0.23,42.79
4,-0.20,0.97,0.14,42.79
4,-0.20,0.97,0.09,48.27
4,-0.08,0.97,0.09,39.51
4,0.07,1.12,0.03,39.51
4,0.10,0.97,0.10,41.03
4,0.10,0.97,0.23,42.37
4,-0.07,0.94,0.23,42.89
4,-0.20,1.00,0.15,46.02
4,-0.20,1.05,0.11,47.50
4,-0.10,0.93,0.11,41.55
4,0.03,1.12,0.04,41.55
4,0.03,1.03,0.08,40.71
4,0.13,1.03,0.09,41.12
4,-0.03,0.93,0.22,41.12
4,-0.20,1.02,0.18,44.66
4,-0.20,1.02,0.13,47.47
4,-0.14,0.92,0.13,47.47
4,-0.01,1.08,0.06,43.52
4,-0.01,1.06,0.07,39.21
4,0.14,1.06,0.07,39.20
4,0.01,0.92,0.18,40.76
4,0.01,1.00,0.21,42.64
4,-0.18,1.00,0.21,42.67
4,-0.17,0.93,0.13,42.67
4,-0.17,1.04,0.07,43.04
4,-0.05,1.04,0.12,42.44
4,0.13,1.10,0.06,42.44
4,0.04,0.95,0.14,42.52
4,0.04,0.95,0.23,40.42
4,-0.14,0.98,0.23,40.35
4,-0.19,0.97,0.14,41.14
4,-0.19,0.97,0.08,50.61
4,-0.08,0.97,0.08,47.77
4,0.10,1.13,0.04,47.77
4,0.07,0.97,0.12,45.72
4,0.07,0.97,0.10,47.54
4,-0.09,0.95,0.23,47.54
4,-0.19,1.00,0.16,44.92
4,-0.19,1.00,0.09,41.11
4,-0.11,0.92,0.09,41.11
4,0.06,1.14,0.03,43.26
4,0.06,1.13,0.09,42.88
4,0.11,1.00,0.09,42.93
4,-0.04,0.93,0.21,43.71
4,-0.04,1.02,0.17,41.85
4,-0.19,1.02,0.17,45.54
4,-0.14,0.91,0.12,45.54
4,-0.18,1.11,0.05,44.48
4,0.01,1.11,0.08,40.78
4,0.12,1.04,0.08,40.78
4,0.00,0.92,0.20,45.87
4,0.00,0.89,0.20,45.65
4,-0.18,1.02,0.20,46.08
4,-0.18,0.91,0.13,40.59
4,-0.18,1.06,0.06,45.94
4,-0.01,1.06,0.06,44.94
4,0.12,1.09,0.06,44.94
4,0.09,0.94,0.15,42.27
4,0.03,0.94,0.16,48.93
4,-0.15,0.99,0.22,48.93
4,-0.20,0.95,0.13,45.65
4,-0.20,0.95,0.08,38.43
4,-0.05,1.00,0.08,38.43
4,0.09,1.12,0.05,47.83
4,0.09,1.08,0.12,46.55
4,0.07,0.96,0.12,46.36
4,-0.09,0.97,0.23,42.44
4,-0.09,0.98,0.15,42.34
4,-0.21,0.98,0.15,43.70
4,-0.09,0.95,0.10,43.70
4,-0.08,1.12,0.05,44.62
4,0.05,1.12,0.03,44.30
4,0.12,1.00,0.09,44.30
4,-0.05,0.95,0.22,42.36
4,-0.05,0.95,0.16,45.38
4,-0.21,1.01,0.16,45.37
4,-0.13,0.92,0.12,39.89
4,-0.13,1.11,0.04,43.69
4,0.01,1.11,0.04,40.99
4,0.14,1.02,0.07,40.99
4,0.18,0.93,0.20,46.19
4,-0.00,0.93,0.19,48.00
4,-0.20,1.01,0.19,48.00
4,-0.16,0.93,0.12,46.35
4,-0.16,0.93,0.06,42.89
4,-0.03,1.08,0.06,42.89
4,0.13,1.06,0.06,46.21
4,0.13,1.12,0.17,43.14
4,0.02,0.94,0.17,44.23
4,-0.16,0.99,0.21,44.23
4,-0.16,0.95,0.14,44.89
4,-0.18,0.95,0.13,43.86
4,-0.06,1.01,0.06,43.86
4,-0.01,1.11,0.03,47.79
4,0.11,1.11,0.14,40.28
4,0.06,0.96,0.14,40.28
4,-0.12,0.97,0.23,38.56
4,-0.12,0.98,0.15,46.72
4,-0.18,0.98,0.15,46.69
4,-0.09,0.94,0.08,43.55
4,-0.09,1.13,0.03,44.22
5,0.12,1.03,0.09,38.35
5,0.12,1.05,0.20,42.07
5,-0.02,0.92,0.20,41.85
5,-0.19,1.02,0.18,51.25
5,-0.19,0.91,0.12,44.85
5,-0.16,0.91,0.12,47.05
5,-0.01,1.09,0.06,47.05
5,-0.00,1.07,0.08,49.67
5,0.12,1.07,0.11,43.73
5,0.02,0.93,0.18,43.73
5,-0.16,1.01,0.21,46.43
5,-0.16,1.01,0.14,44.77
5,-0.17,0.93,0.14,45.06
5,-0.05,1.03,0.07,48.19
5,-0.05,1.04,0.06,42.06
5,0.11,1.10,0.06,42.71
5,0.04,0.95,0.13,42.71
5,0.04,0.98,0.22,43.90
5,-0.10,0.98,0.20,42.89
5,-0.20,0.96,0.14,42.89
5,-0.20,0.97,0.07,40.52
5,-0.08,0.97,0.05,47.79
5,0.08,1.13,0.05,47.79
5,0.08,0.98,0.11,41.69
5,0.08,0.95,0.21,42.21
5,-0.08,0.95,0.21,41.53
5,-0.21,1.00,0.15,41.53
5,-0.21,0.93,0.11,46.45
5,-0.10,0.93,0.11,42.50
5,0.04,1.13,0.04,42.50
5,0.05,1.01,0.09,48.59
5,0.11,1.01,0.08,45.63
5,-0.02,0.95,0.21,45.63
5,-0.20,1.02,0.18,42.28
5,-0.20,1.02,0.12,43.81
5,-0.14,0.91,0.12,44.36
5,-0.01,1.10,0.06,45.14
5,-0.01,1.04,0.06,46.47
5,0.13,1.04,0.06,42.16
5,0.01,0.94,0.19,42.16
5,0.01,1.00,0.21,41.36
5,-0.17,1.00,0.20,39.65
5,-0.17,0.93,0.14,39.65
5,-0.04,1.05,0.06,44.17
5,-0.04,1.05,0.05,46.40
5,0.12,1.09,0.05,46.40
5,0.05,0.95,0.15,44.74
5,0.05,0.98,0.22,47.38
5,-0.13,0.98,0.22,47.00
5,-0.18,0.96,0.14,52.49
5,-0.18,0.99,0.09,41.74
5,-0.08,0.99,0.10,44.84
5,0.09,1.11,0.04,44.84
5,0.08,0.98,0.12,42.41
5,0.08,0.98,0.22,38.73
5,-0.08,0.95,0.22,38.73
5,-0.19,1.01,0.14,40.87
5,-0.19,1.01,0.10,42.60
5,-0.11,0.95,0.10,42.84
5,0.05,1.12,0.03,43.62
5,0.05,1.01,0.11,44.03
5,0.12,1.01,0.11,41.15
5,-0.05,0.93,0.22,41.15
5,-0.00,1.01,0.17,42.93
5,-0.19,1.01,0.18,42.61
5,-0.15,0.92,0.12,42.61
5,0.00,1.11,0.04,46.69
5,0.00,1.11,0.09,39.96
5,0.13,1.05,0.09,39.96
5,-0.01,0.93,0.19,45.59
5,-0.01,0.94,0.20,46.84
5,-0.17,1.00,0.20,45.43
5,-0.16,0.93,0.12,45.43
5,-0.16,1.06,0.07,43.95
5,-0.03,1.06,0.08,44.06
5,0.13,1.08,0.08,44.06
5,0.15,0.94,0.15,46.29
5,0.03,0.94,0.22,41.91
5,-0.14,0.98,0.22,41.91
5,-0.18,0.95,0.13,48.20
5,-0.18,1.00,0.08,50.10
5,-0.06,1.00,0.08,50.61
5,0.10,1.11,0.05,45.12
5,0.10,0.96,0.12,44.63
5,0.05,0.96,0.12,47.47
5,-0.09,0.96,0.23,47.47
5,-0.07,0.99,0.15,43.86
5,-0.19,0.99,0.15,45.44
5,-0.10,0.94,0.08,45.44
5,0.06,1.12,0.04,42.45
5,0.06,1.12,0.10,43.42
5,0.09,0.99,0.10,43.14
5,-0.04,0.95,0.22,46.27
5,-0.04,0.94,0.16,43.83
5,-0.19,1.00,0.16,44.91
5,-0.13,0.93,0.11,44.91
5,-0.13,1.12,0.06,39.61
5,0.03,1.12,0.03,49.76
5,0.12,1.02,0.09,49.76
5,0.12,0.94,0.21,43.30
5,-0.01,0.94,0.18,45.28
5,-0.18,1.01,0.18,45.28
5,-0.16,0.92,0.12,41.84
5,-0.16,0.90,0.08,45.94
5,-0.03,1.08,0.08,45.57
5,0.12,1.05,0.06,41.66
5,0.12,0.94,0.16,43.15
5,0.03,0.94,0.16,47.15
5,-0.15,1.01,0.20,47.15
5,-0.18,0.94,0.13,47.94
5,-0.18,0.94,0.13,44.60
5,-0.05,1.02,0.07,44.60
5,0.10,1.09,0.04,46.17
5,0.10,1.09,0.14,42.61
5,0.06,0.97,0.14,42.45
5,-0.11,0.97,0.21,44.01
5,-0.11,0.98,0.14,51.17
5,-0.18,0.98,0.14,47.21
5,-0.08,0.97,0.10,47.21
5,-0.08,1.11,0.05,43.96
5,0.06,1.11,0.05,43.66
5,0.11,0.98,0.11,43.66
5,0.06,0.95,0.20,47.55
5,-0.06,0.95,0.15,45.09
5,-0.18,1.01,0.15,45.09
5,-0.12,0.92,0.11,42.83
10,0.04,0.98,0.18,44.61
10,-0.09,0.98,0.13,42.52
10,-0.15,0.98,0.13,42.52
10,-0.15,1.01,0.09,47.74
10,-0.09,1.01,0.07,43.65
10,0.05,1.06,0.07,43.65
10,0.07,0.98,0.13,40.79
10,0.07,0.97,0.19,46.03
10,-0.06,0.97,0.19,46.06
10,-0.16,0.99,0.14,40.58
10,-0.16,0.98,0.09,42.86
10,-0.12,0.98,0.09,43.42
10,0.01,1.07,0.07,43.42
10,0.02,1.01,0.11,47.18
10,0.08,1.01,0.06,45.53
10,-0.02,0.96,0.19,45.53
10,-0.15,0.99,0.15,45.21
10,-0.15,0.99,0.10,41.59
10,-0.14,0.97,0.10,41.85
10,-0.02,1.06,0.07,51.25
10,-0.02,1.02,0.10,44.24
10,0.08,1.02,0.10,44.41
10,0.01,0.96,0.17,44.41
10,0.01,0.99,0.17,45.21
10,-0.14,0.99,0.18,46.19
10,-0.15,0.97,0.12,46.19
10,-0.18,1.04,0.09,43.09
10,-0.05,1.04,0.08,41.10
10,0.09,1.04,0.08,41.10
10,0.04,0.98,0.17,41.78
10,0.04,0.99,0.18,46.62
10,-0.10,0.99,0.18,46.58
10,-0.15,0.97,0.12,44.23
10,-0.15,1.02,0.08,44.73
10,-0.07,1.02,0.08,45.86
10,0.05,1.06,0.09,45.86
10,0.06,0.99,0.14,51.11
10,0.06,0.99,0.13,45.48
10,-0.07,0.97,0.19,45.48
10,-0.16,0.98,0.13,43.35
10,-0.16,0.98,0.10,41.90
10,-0.11,0.99,0.10,41.90
10,0.02,1.05,0.08,40.60
10,0.02,1.06,0.12,40.38
10,0.08,1.00,0.12,41.85
10,-0.03,0.96,0.18,41.85
10,-0.03,0.98,0.15,43.63
10,-0.16,0.98,0.17,46.40
10,-0.13,0.97,0.10,46.40
10,-0.14,1.07,0.07,42.70
10,-0.02,1.07,0.10,45.06
10,0.08,1.03,0.10,45.06
10,0.01,0.97,0.18,42.73
10,0.01,0.99,0.16,44.50
10,-0.15,0.99,0.16,44.17
10,-0.15,0.96,0.12,44.95
10,-0.15,1.04,0.08,45.82
10,-0.04,1.04,0.08,45.05
10,0.08,1.03,0.09,45.05
10,0.09,0.97,0.15,41.08
10,0.03,0.97,0.17,47.34
10,-0.11,0.99,0.17,47.34
10,-0.15,0.97,0.12,44.46
10,-0.15,0.97,0.09,42.05
10,-0.07,1.02,0.09,41.53
10,0.06,1.04,0.08,45.45
10,0.06,1.04,0.16,47.35
10,0.05,0.98,0.16,42.25
10,-0.07,0.98,0.19,42.25
10,-0.07,0.98,0.14,42.98
10,-0.15,0.98,0.14,42.26
10,-0.10,1.00,0.08,42.26
10,-0.09,1.06,0.06,47.58
10,0.03,1.06,0.12,47.88
10,0.08,1.00,0.12,47.88
10,-0.04,0.96,0.19,47.09
10,-0.04,1.00,0.15,42.19
10,-0.15,1.00,0.15,42.12
10,-0.13,0.97,0.10,40.55
10,-0.13,1.06,0.07,43.15
10,-0.01,1.06,0.07,44.37
10,0.09,1.01,0.11,44.37
10,0.12,0.97,0.19,43.65
10,-0.01,0.97,0.16,43.32
10,-0.14,0.99,0.16,43.32
10,-0.13,0.97,0.12,36.95
10,-0.13,0.97,0.09,40.39
10,-0.04,1.05,0.09,40.07
10,0.08,1.03,0.10,45.56
10,0.08,1.03,0.16,39.19
10,0.02,0.97,0.16,45.14
10,-0.11,0.99,0.17,45.14
10,-0.11,0.96,0.12,43.38
10,-0.15,0.96,0.07,45.17
10,-0.06,1.03,0.07,45.17
10,-0.06,1.05,0.09,40.93
10,0.07,1.05,0.16,42.03
10,0.05,0.99,0.16,42.03
10,-0.08,0.99,0.19,45.26
10,-0.08,0.97,0.12,46.15
10,-0.16,0.97,0.12,46.49
10,-0.09,1.01,0.08,49.62
10,-0.09,1.06,0.07,44.94
10,0.04,1.06,0.07,45.95
10,0.07,1.00,0.12,45.95
10,0.08,0.97,0.19,40.67
10,-0.04,0.97,0.20,38.59
10,-0.15,0.99,0.14,38.59
10,-0.11,0.98,0.11,43.89
10,-0.11,0.98,0.07,41.26
10,0.00,1.06,0.07,40.99
10,0.07,1.01,0.11,47.25
10,0.07,1.02,0.19,44.23
10,-0.01,0.96,0.19,45.68
10,-0.15,0.99,0.15,45.68
10,-0.15,0.97,0.11,43.25
10,-0.14,0.97,0.07,50.77
10,-0.02,1.05,0.07,50.77
10,-0.05,1.02,0.10,42.38
10,0.07,1.02,0.19,51.10
10,0.01,0.97,0.19,51.10
10,-0.13,0.99,0.17,41.98
10,-0.13,0.97,0.10,42.05
10,-0.15,0.97,0.10,41.47
10,-0.07,1.03,0.08,48.52
10,-0.07,1.04,0.09,38.86
10,0.06,1.04,0.09,46.88
10,0.04,0.98,0.15,46.88
10,0.03,0.98,0.17,45.45
10,-0.09,0.98,0.19,45.87
10,-0.16,0.97,0.12,45.87
10,-0.08,1.01,0.08,44.81
10,-0.08,1.01,0.08,44.76
10,0.05,1.06,0.08,45.07
10,0.07,1.00,0.13,45.85
10,0.07,0.96,0.18,39.45
10,-0.06,0.96,0.18,40.18
10,-0.14,0.99,0.14,40.18
10,-0.14,0.99,0.10,38.71
10,-0.10,0.99,0.08,47.96
10,0.01,1.05,0.08,47.96
10,0.01,1.00,0.12,43.50
10,0.07,1.00,0.19,44.09
10,-0.03,0.97,0.19,44.09
10,-0.14,0.99,0.15,40.03
10,-0.14,0.97,0.11,44.19
10,-0.13,0.97,0.11,43.91
10,-0.02,1.06,0.07,44.69
10,-0.02,1.02,0.11,40.06
10,0.08,1.02,0.11,44.97
10,0.02,0.96,0.17,44.97
10,0.06,0.99,0.17,47.40
10,-0.13,0.99,0.18,46.19
10,-0.15,0.97,0.12,46.19
10,-0.06,1.03,0.08,38.36
10,-0.06,1.03,0.10,44.38
10,0.08,1.04,0.10,44.17
10,0.04,0.98,0.16,41.82
10,0.04,0.98,0.18,41.71
10,-0.09,0.98,0.18,48.29
10,-0.15,0.97,0.11,48.29
10,-0.15,1.01,0.08,46.75
10,-0.08,1.01,0.09,41.93
10,0.06,1.05,0.09,41.93
10,0.05,0.99,0.14,45.48
10,0.05,0.99,0.18,47.14
10,-0.06,0.98,0.18,47.14
10,-0.16,0.98,0.13,41.89
10,-0.16,0.99,0.09,45.76
10,-0.10,0.99,0.09,45.81
10,0.03,1.06,0.08,37.98
10,0.03,1.00,0.12,41.17
10,0.08,1.00,0.12,43.63
10,-0.03,0.97,0.18,43.63
10,-0.02,0.99,0.14,48.18
10,-0.14,0.99,0.16,43.47
10,-0.12,0.97,0.10,43.47
10,-0.01,1.06,0.07,44.82
10,-0.01,1.06,0.11,39.32
10,0.08,1.01,0.11,39.42
10,0.00,0.97,0.18,37.85
10,0.00,1.00,0.16,42.93
10,-0.14,1.00,0.16,37.57
10,-0.14,0.97,0.11,37.57
10,-0.14,1.05,0.08,41.16
10,-0.04,1.05,0.10,39.94
10,0.08,1.03,0.10,39.94
10,0.10,0.98,0.16,44.74
10,0.03,0.98,0.17,45.88
10,-0.12,0.98,0.17,45.88
10,-0.15,0.97,0.12,44.83
10,-0.15,0.97,0.09,49.59
10,-0.07,1.03,0.09,50.04
10,0.05,1.04,0.08,46.91
10,0.05,0.98,0.15,38.94
10,0.05,0.98,0.15,43.84
10,-0.07,0.98,0.20,43.84
10,-0.09,0.98,0.13,46.17
10,-0.16,0.98,0.15,42.37
10,-0.10,1.01,0.08,42.37
10,0.02,1.05,0.07,53.47
11,0.08,1.01,0.10,40.02
11,-0.01,0.97,0.18,45.50
11,-0.01,1.00,0.16,45.90
11,-0.13,1.00,0.16,48.49
11,-0.13,0.96,0.11,48.49
11,-0.17,1.04,0.09,48.90
11,-0.05,1.04,0.10,41.51
11,0.08,1.03,0.10,41.51
11,0.03,0.97,0.18,39.86
11,0.03,0.97,0.17,49.02
11,-0.11,0.99,0.17,48.77
11,-0.15,0.97,0.10,47.20
11,-0.15,0.97,0.08,40.14
11,-0.07,1.03,0.08,42.86
11,0.08,1.04,0.10,42.86
11,0.08,0.98,0.14,48.30
11,0.05,0.98,0.17,47.02
11,-0.08,0.98,0.17,47.02
11,-0.09,0.97,0.12,45.96
11,-0.15,0.97,0.09,41.91
11,-0.10,1.00,0.09,41.91
11,0.04,1.05,0.08,49.68
11,0.04,1.05,0.13,45.09
11,0.06,0.99,0.13,44.83
11,-0.06,0.97,0.18,47.18
11,-0.06,0.98,0.14,41.14
11,-0.15,0.98,0.14,45.86
11,-0.11,0.98,0.09,45.86
11,-0.11,1.05,0.08,49.56
11,0.01,1.05,0.12,42.58
11,0.08,1.01,0.12,42.58
11,-0.02,0.97,0.19,42.28
11,-0.02,0.97,0.15,44.81
11,-0.14,1.00,0.15,45.17
11,-0.13,0.97,0.10,46.74
11,-0.13,0.99,0.06,46.28
11,-0.02,1.05,0.06,46.78
11,0.07,1.02,0.11,46.78
11,0.07,0.97,0.18,41.99
11,0.02,0.97,0.17,40.33
11,-0.12,0.98,0.17,40.33
11,-0.09,0.96,0.11,43.63
11,-0.15,0.96,0.08,41.08
11,-0.06,1.03,0.08,41.08
11,0.06,1.03,0.10,45.09
11,0.06,1.04,0.15,41.15
11,0.04,0.98,0.15,40.67
11,-0.09,0.98,0.19,41.45
11,-0.09,0.98,0.13,43.59
11,-0.15,0.98,0.13,41.10
11,-0.08,1.01,0.09,41.10
11,-0.08,1.05,0.09,46.29
11,0.05,1.05,0.07,44.79
11,0.06,0.99,0.13,44.79
11,-0.06,0.97,0.18,39.75
11,-0.06,0.97,0.13,40.18
11,-0.16,0.98,0.13,40.06
11,-0.11,1.00,0.08,47.11
11,-0.11,1.04,0.07,43.11
11,0.01,1.04,0.07,45.09
11,0.07,1.01,0.13,45.09
11,0.07,0.97,0.19,42.26
11,-0.02,0.97,0.16,46.31
11,-0.15,0.99,0.16,46.31
11,-0.19,0.97,0.10,45.14
11,-0.12,0.97,0.08,41.83
11,-0.01,1.04,0.08,41.83
11,0.08,1.02,0.11,45.09
11,0.08,1.04,0.16,42.23
11,0.02,0.97,0.16,42.00
11,-0.13,0.99,0.16,42.00
11,-0.13,0.97,0.11,46.01
11,-0.14,0.97,0.11,42.49
11,-0.06,1.04,0.08,42.49
11,-0.05,1.04,0.09,42.74
11,0.07,1.04,0.10,41.28
11,0.04,0.97,0.16,41.28
11,-0.10,0.98,0.18,46.90
11,-0.10,0.98,0.12,40.59
11,-0.15,0.98,0.12,40.23
11,-0.09,1.02,0.08,46.50
11,-0.09,1.04,0.09,47.56
11,0.05,1.04,0.09,42.37
11,0.06,1.00,0.14,42.37
11,0.12,0.98,0.18,45.42
11,-0.07,0.98,0.13,41.13
11,-0.15,0.98,0.13,41.13
11,-0.10,0.99,0.09,39.94
11,-0.10,0.99,0.07,43.60
11,0.02,1.05,0.07,43.60
11,0.08,1.01,0.12,46.17
11,0.08,1.02,0.19,40.80
11,-0.04,0.96,0.19,40.94
11,-0.14,1.00,0.14,47.99
11,-0.14,0.98,0.11,45.58
11,-0.13,0.98,0.11,45.12
11,-0.01,1.04,0.08,45.12
11,-0.05,1.02,0.10,38.13
11,0.07,1.02,0.06,44.75
11,-0.01,0.97,0.19,44.75
11,-0.13,0.99,0.16,45.67
11,-0.13,0.99,0.10,45.52
11,-0.15,0.97,0.10,45.95
11,-0.05,1.04,0.08,43.60
11,-0.05,1.03,0.10,38.66
11,0.07,1.03,0.10,45.35
11,0.02,0.98,0.17,45.35
11,0.02,0.99,0.17,44.23
11,-0.10,0.99,0.19,43.26
11,-0.15,0.97,0.12,43.26
11,-0.07,1.02,0.07,47.02
11,-0.07,1.02,0.08,40.87
11,0.06,1.05,0.08,40.87
11,0.04,0.99,0.15,41.41
11,0.04,0.97,0.18,41.03
11,-0.07,0.97,0.18,50.46
11,-0.15,0.97,0.13,50.46
11,-0.15,1.00,0.09,40.65
11,-0.11,1.00,0.08,40.73
11,0.02,1.05,0.08,40.73
11,0.00,1.00,0.15,43.05
11,0.07,1.00,0.19,45.71
11,-0.04,0.96,0.19,45.71
11,-0.15,0.98,0.14,46.29
11,-0.15,0.99,0.10,39.56
11,-0.12,0.99,0.10,39.87
11,-0.00,1.06,0.09,47.70
11,-0.00,1.01,0.11,39.46
11,0.07,1.01,0.11,43.53
11,-0.00,0.97,0.18,43.53
11,-0.01,0.99,0.15,42.51
11,-0.13,0.99,0.16,43.27
11,-0.13,0.98,0.10,43.27
11,-0.03,1.05,0.07,43.52
11,-0.03,1.05,0.11,44.15
11,0.07,1.02,0.11,44.15
11,0.02,0.97,0.17,46.92
11,0.02,1.00,0.17,40.56
11,-0.12,1.00,0.17,40.10
11,-0.14,0.97,0.11,46.37
11,-0.14,1.03,0.08,39.78
11,-0.07,1.03,0.09,48.91
11,0.06,1.03,0.09,48.91
11,0.10,0.99,0.14,48.78
11,0.04,0.99,0.18,45.06
11,-0.08,0.98,0.18,45.06
11,-0.14,0.97,0.13,38.74
11,-0.14,0.94,0.08,42.74
11,-0.09,1.01,0.08,42.34
11,0.04,1.04,0.08,41.55
11,0.04,0.98,0.14,43.08
11,0.07,0.98,0.14,45.37
11,-0.05,0.97,0.17,45.37
11,-0.02,0.99,0.13,39.97
11,-0.15,0.99,0.15,45.87
11,-0.11,0.98,0.09,45.87
11,0.01,1.05,0.08,42.22
11,0.01,1.05,0.11,46.11
11,0.07,1.00,0.11,46.11
11,-0.01,0.97,0.17,43.68
11,-0.01,0.99,0.14,39.68
11,-0.13,0.99,0.14,39.13
11,-0.13,0.98,0.10,47.74
11,-0.13,1.05,0.08,52.29
11,-0.03,1.05,0.11,40.36
11,0.08,1.02,0.11,40.36
11,0.07,0.97,0.18,40.32
11,0.01,0.97,0.16,39.10
11,-0.12,1.00,0.16,39.10
11,-0.14,0.97,0.11,42.48
11,-0.14,0.97,0.08,44.00
11,-0.05,1.03,0.08,44.03
11,0.07,1.04,0.09,43.25
11,0.07,0.98,0.15,44.78
11,0.03,0.98,0.15,40.60
11,-0.08,0.99,0.16,40.60
11,-0.09,0.97,0.12,42.72
11,-0.15,0.97,0.09,42.31
11,-0.09,1.02,0.09,42.31
11,0.06,1.04,0.09,44.40
11,0.06,1.04,0.13,43.06
11,0.06,0.99,0.13,43.06
11,-0.07,0.98,0.19,47.92
11,-0.07,0.97,0.13,45.11
11,-0.15,0.97,0.13,43.17
11,-0.10,0.99,0.09,43.17
11,-0.10,1.05,0.08,44.99
11,0.01,1.05,0.07,44.73
11,0.07,1.00,0.14,44.73
11,0.10,0.97,0.18,45.55
11,-0.02,0.97,0.15,41.45
11,-0.14,0.99,0.15,41.45
11,-0.13,0.98,0.10,36.89
11,-0.13,0.98,0.08,44.64
11,-0.02,1.04,0.08,44.68
11,0.07,1.01,0.11,40.77
11,0.07,0.96,0.18,49.42
11,0.00,0.96,0.18,41.20
11,-0.12,1.00,0.16,41.20
11,-0.08,0.97,0.11,38.94
11,-0.14,0.97,0.08,40.55
11,-0.05,1.03,0.08,40.55
11,0.06,1.03,0.11,41.78
11,0.06,1.03,0.16,39.38
11,0.04,0.98,0.16,39.28
11,-0.10,0.98,0.18,43.98
11,-0.10,0.98,0.12,47.46
11,-0.15,0.98,0.12,41.55
11,-0.08,1.02,0.07,41.55
11,-0.08,1.05,0.09,44.07
11,0.05,1.05,0.08,41.08
11,0.05,0.99,0.14,41.08
11,0.06,0.98,0.18,51.38
11,-0.07,0.98,0.13,50.98
11,-0.15,0.98,0.13,50.98
11,-0.10,1.01,0.09,44.29
11,-0.10,1.05,0.08,41.64
11,0.03,1.05,0.08,42.15
11,0.07,1.00,0.14,35.89
11,0.07,0.97,0.19,42.27
11,-0.04,0.97,0.19,48.52
11,-0.14,0.99,0.14,48.52
11,-0.18,0.98,0.11,39.94
11,-0.12,0.98,0.08,44.13
11,-0.02,1.05,0.08,44.13
11,0.08,1.01,0.12,45.28
11,0.08,1.01,0.18,44.80
11,0.00,0.97,0.18,45.35
11,-0.13,0.99,0.15,47.70
11,-0.13,0.97,0.11,39.99
11,-0.14,0.97,0.11,43.34
11,-0.04,1.05,0.07,43.34
11,-0.04,1.03,0.11,45.12
12,0.04,0.98,0.16,40.37
12,0.05,0.98,0.17,38.14
12,-0.07,0.98,0.18,42.79
12,-0.15,0.98,0.12,42.79
12,-0.10,1.01,0.08,42.24
12,-0.10,1.01,0.08,41.81
12,0.03,1.05,0.08,42.00
12,0.06,0.99,0.13,42.78
12,0.06,0.97,0.19,38.48
12,-0.04,0.97,0.19,44.15
12,-0.15,0.98,0.14,44.15
12,-0.15,0.99,0.09,44.67
12,-0.12,0.99,0.08,44.76
12,0.00,1.05,0.08,44.76
12,0.01,1.00,0.11,44.58
12,0.07,1.00,0.18,43.32
12,-0.00,0.98,0.18,43.32
12,-0.13,0.99,0.16,45.19
12,-0.13,0.97,0.10,44.55
12,-0.14,0.97,0.10,43.92
12,-0.05,1.04,0.08,39.22
12,-0.05,1.02,0.10,41.25
12,0.07,1.02,0.10,42.20
12,0.02,0.98,0.17,42.20
12,0.02,0.99,0.16,47.91
12,-0.11,0.99,0.17,39.62
12,-0.15,0.97,0.11,39.62
12,-0.06,1.03,0.08,44.88
12,-0.06,1.03,0.09,45.74
12,0.05,1.03,0.09,46.11
12,0.04,0.98,0.16,46.89
12,0.04,0.98,0.18,47.41
12,-0.08,0.98,0.18,49.74
12,-0.15,0.98,0.12,49.74
12,-0.15,1.01,0.08,44.81
12,-0.09,1.01,0.08,40.10
12,0.04,1.05,0.08,40.10
12,0.06,0.99,0.14,50.25
12,0.06,0.99,0.19,43.45
12,-0.05,0.97,0.19,43.45
12,-0.15,0.98,0.14,46.87
12,-0.15,1.00,0.09,45.06
12,-0.11,1.00,0.09,44.97
12,0.00,1.05,0.08,38.70
12,0.00,1.00,0.11,42.99
12,0.07,1.00,0.11,44.77
12,-0.01,0.97,0.17,44.77
12,-0.00,0.99,0.15,46.66
12,-0.13,0.99,0.16,44.57
12,-0.13,0.98,0.10,44.57
12,-0.02,1.04,0.07,46.19
12,-0.02,1.04,0.12,42.59
12,0.07,1.01,0.12,42.31
12,0.00,0.98,0.18,44.66
12,0.00,0.99,0.17,38.98
12,-0.12,0.99,0.17,44.29
12,-0.14,0.98,0.11,44.29
12,-0.18,1.03,0.06,41.19
12,-0.06,1.03,0.10,42.97
12,0.07,1.04,0.10,42.97
12,0.04,0.98,0.16,40.77
12,0.04,0.98,0.17,43.81
12,-0.09,0.98,0.17,43.81
12,-0.16,0.98,0.13,45.48
12,-0.16,0.96,0.08,43.78
12,-0.09,1.02,0.08,43.29
12,0.04,1.03,0.09,41.73
12,0.04,0.99,0.14,45.00
12,0.05,0.99,0.14,51.24
12,-0.06,0.97,0.18,51.24
12,-0.02,0.98,0.14,46.46
12,-0.15,0.98,0.15,46.48
12,-0.11,1.00,0.09,46.48
12,0.01,1.05,0.09,44.05
12,0.01,1.06,0.13,49.15
12,0.08,1.00,0.13,48.61
12,-0.02,0.97,0.18,43.91
12,-0.02,0.99,0.14,43.53
12,-0.14,0.99,0.14,43.18
12,-0.13,0.98,0.10,43.18
12,-0.08,1.04,0.08,50.45
12,-0.02,1.04,0.11,43.37
12,0.07,1.01,0.11,43.37
12,0.01,0.97,0.18,43.65
12,0.01,0.97,0.15,44.65
12,-0.12,1.00,0.15,44.65
12,-0.14,0.97,0.11,48.43
12,-0.14,0.97,0.08,48.13
12,-0.06,1.03,0.08,48.31
12,0.06,1.03,0.10,43.61
12,0.06,0.98,0.16,43.23
12,0.03,0.98,0.16,46.91
12,-0.09,0.99,0.17,46.91
12,-0.09,0.97,0.12,46.74
12,-0.15,0.97,0.08,39.89
12,-0.07,1.02,0.08,39.89
12,0.05,1.04,0.09,47.61
12,0.05,1.04,0.14,47.99
12,0.05,0.98,0.14,47.95
12,-0.07,0.97,0.18,40.90
12,-0.07,0.98,0.11,48.12
12,-0.15,0.98,0.11,42.70
12,-0.10,1.01,0.08,42.70
12,-0.09,1.04,0.08,41.97
12,0.03,1.04,0.07,44.34
12,0.07,0.99,0.13,44.34
12,-0.03,0.97,0.18,42.82
12,-0.03,0.97,0.12,41.29
12,-0.15,0.99,0.12,41.29
12,-0.11,0.99,0.10,40.07
12,-0.11,0.97,0.08,42.03
12,-0.01,1.04,0.08,41.72
12,0.06,1.01,0.12,44.07
12,0.06,0.98,0.17,43.44
12,0.01,0.98,0.17,44.08
12,-0.13,1.00,0.15,44.08
12,-0.13,0.97,0.11,40.26
12,-0.13,0.97,0.07,43.02
12,-0.04,1.04,0.07,43.02
12,0.07,1.03,0.11,43.92
12,0.07,1.03,0.17,42.78
12,0.02,0.97,0.17,42.55
12,-0.10,0.99,0.17,46.47
12,-0.10,0.97,0.11,45.47
12,-0.14,0.97,0.11,43.33
12,-0.07,1.03,0.08,43.33
12,-0.07,1.03,0.10,41.10
12,0.05,1.03,0.10,48.94
12,0.04,0.98,0.16,48.94
12,-0.07,0.98,0.17,44.91
12,-0.07,0.98,0.12,45.55
12,-0.14,0.97,0.12,45.55
12,-0.10,1.01,0.09,41.82
12,-0.10,1.05,0.09,47.72
12,0.03,1.05,0.09,50.45
12,0.07,1.00,0.14,50.45
12,0.07,0.97,0.17,46.34
12,-0.05,0.97,0.14,44.74
12,-0.13,0.99,0.14,44.74
12,-0.18,0.98,0.09,43.61
12,-0.12,0.98,0.07,43.59
12,0.00,1.04,0.07,43.59
12,0.07,1.01,0.12,42.54
12,0.07,1.03,0.18,46.00
12,-0.01,0.97,0.18,45.60
12,-0.14,0.99,0.14,43.25
12,-0.14,0.98,0.10,43.58
12,-0.13,0.98,0.10,44.98
12,-0.03,1.04,0.08,44.98
12,-0.06,1.02,0.11,46.85
12,0.07,1.02,0.10,43.38
12,0.02,0.97,0.16,43.38
12,-0.12,0.99,0.16,42.27
12,-0.12,0.99,0.12,45.07
12,-0.14,0.97,0.12,45.07
12,-0.06,1.04,0.07,46.70
12,-0.06,1.02,0.11,41.22
12,0.05,1.02,0.11,46.77
12,0.04,0.98,0.15,46.77
12,0.04,0.99,0.18,41.86
12,-0.09,0.99,0.13,44.73
12,-0.15,0.97,0.13,44.73
12,-0.15,1.01,0.07,44.50
12,-0.09,1.01,0.09,42.23
12,0.03,1.04,0.09,42.23
12,0.06,0.99,0.13,48.99
12,0.06,0.98,0.16,42.49
12,-0.06,0.98,0.16,42.89
12,-0.14,0.99,0.14,41.32
12,-0.14,1.00,0.09,46.40
12,-0.11,1.00,0.09,43.77
12,0.01,1.05,0.08,43.77
12,0.01,1.01,0.12,40.39
12,0.07,1.01,0.11,46.70
12,-0.02,0.97,0.17,46.70
12,-0.14,1.00,0.15,45.64
12,-0.14,1.00,0.10,39.66
12,-0.13,0.98,0.10,39.66
12,-0.03,1.04,0.07,42.23
12,-0.03,1.01,0.11,43.72
12,0.08,1.01,0.11,44.79
12,0.01,0.98,0.18,44.79
12,0.01,0.99,0.15,45.47
12,-0.11,0.99,0.18,43.07
12,-0.14,0.97,0.12,43.07
12,-0.18,1.04,0.08,45.53
12,-0.05,1.04,0.11,39.71
12,0.06,1.03,0.11,39.71
12,0.04,0.98,0.17,46.24
12,0.04,0.99,0.16,43.98
12,-0.08,0.99,0.16,43.83
12,-0.16,0.97,0.12,43.83
12,-0.16,1.01,0.08,40.03
12,-0.08,1.01,0.08,42.18
12,0.04,1.04,0.09,42.18
12,0.05,0.99,0.14,43.07
12,0.05,0.99,0.17,42.29
12,-0.06,0.98,0.17,42.29
12,-0.15,0.98,0.13,38.98
12,-0.15,0.98,0.09,42.42
12,-0.10,1.01,0.09,42.70
12,0.02,1.05,0.08,45.05
12,0.02,1.00,0.13,41.08
12,0.07,1.00,0.13,48.29
12,-0.03,0.98,0.18,48.29
12,-0.03,0.99,0.14,41.45
12,-0.13,0.99,0.17,44.37
12,-0.12,0.99,0.10,44.37
12,-0.08,1.03,0.08,49.52
12,-0.02,1.03,0.11,47.38
12,0.07,1.01,0.11,47.38
12,0.00,0.97,0.17,43.29
12,0.00,0.99,0.16,43.39
12,-0.13,0.99,0.16,43.06
12,-0.14,0.97,0.10,46.20
12,-0.14,1.04,0.09,45.37
12,-0.05,1.04,0.09,40.66
12,0.06,1.03,0.10,40.66
12,0.02,0.97,0.16,41.26
12,0.02,0.97,0.17,42.18
12,-0.09,0.98,0.17,42.18
12,-0.15,0.98,0.12,41.22
12,-0.15,0.98,0.08,42.58
12,-0.07,1.02,0.08,42.93
12,0.05,1.03,0.09,47.63
12,0.05,1.05,0.14,41.86
12,0.05,0.99,0.14,49.70
12,-0.06,0.98,0.18,49.70
12,-0.06,0.98,0.13,45.84
12,-0.14,0.98,0.14,44.47
12,-0.10,1.00,0.08,44.47
12,-0.10,1.04,0.08,39.06
12,0.03,1.04,0.13,46.87
13,-0.00,0.97,0.18,44.17
13,-0.00,0.97,0.15,40.96
13,-0.13,0.99,0.15,40.95
13,-0.13,0.97,0.11,47.22
13,-0.13,0.98,0.09,44.36
13,-0.04,1.05,0.09,43.23
13,0.06,1.02,0.11,43.23
13,0.06,0.97,0.17,41.29
13,0.03,0.97,0.17,39.98
13,-0.10,0.98,0.17,39.98
13,-0.08,0.97,0.12,41.78
13,-0.15,0.97,0.08,42.79
13,-0.06,1.02,0.08,42.79
13,0.05,1.03,0.10,41.02
13,0.05,1.05,0.16,40.91
13,0.05,0.99,0.16,41.38
13,-0.08,0.98,0.18,39.03
13,-0.08,0.98,0.13,43.61
13,-0.15,0.98,0.13,47.79
13,-0.10,1.01,0.08,47.79
13,-0.10,1.03,0.09,45.25
13,0.03,1.03,0.08,45.21
13,0.06,1.00,0.14,45.21
13,-0.04,0.98,0.17,41.99
13,-0.04,0.98,0.14,44.04
13,-0.14,0.98,0.14,44.52
13,-0.11,1.00,0.09,45.30
13,-0.11,0.98,0.08,44.83
13,0.00,1.04,0.08,43.55
13,0.07,1.00,0.13,43.55
13,0.07,0.97,0.18,46.66
13,-0.02,0.97,0.15,40.80
13,-0.13,0.98,0.15,40.80
13,-0.13,0.98,0.10,42.78
13,-0.13,0.98,0.08,46.20
13,-0.03,1.04,0.08,46.20
13,0.07,1.02,0.11,47.85
13,0.07,1.04,0.18,42.56
13,0.01,0.98,0.18,42.79
13,-0.11,0.99,0.16,42.01
13,-0.11,0.98,0.11,49.02
13,-0.14,0.98,0.11,46.68
13,-0.06,1.04,0.08,46.68
13,-0.01,1.03,0.10,46.22
13,0.05,1.03,0.09,40.67
13,0.04,0.98,0.15,40.67
13,-0.09,0.99,0.17,44.39
13,-0.09,0.99,0.12,44.39
13,-0.14,0.98,0.12,43.99
13,-0.08,1.01,0.08,46.34
13,-0.08,1.04,0.10,44.84
13,0.03,1.04,0.10,46.45
13,0.05,0.99,0.14,46.45
13,0.05,0.98,0.17,49.36
13,-0.05,0.98,0.13,47.09
13,-0.14,0.98,0.13,47.09
13,-0.10,1.01,0.09,44.96
13,-0.10,1.01,0.08,39.97
13,0.01,1.03,0.08,39.97
13,0.07,1.01,0.13,40.02
13,0.07,1.03,0.18,42.97
13,-0.02,0.97,0.18,42.39
13,-0.14,0.99,0.14,44.74
13,-0.14,0.99,0.11,42.93
13,-0.12,0.99,0.11,45.48
13,-0.03,1.04,0.08,45.48
13,-0.05,1.01,0.12,42.78
13,0.07,1.01,0.11,42.09
13,0.01,0.98,0.18,42.09
13,-0.12,0.99,0.15,46.55
13,-0.12,0.98,0.11,44.31
13,-0.14,0.98,0.11,44.07
13,-0.05,1.04,0.08,41.72
13,-0.05,1.02,0.10,42.65
13,0.06,1.02,0.10,40.49
13,0.03,0.98,0.16,40.49
13,0.03,0.99,0.17,43.81
13,-0.10,0.99,0.18,47.05
13,-0.15,0.98,0.11,47.05
13,-0.08,1.01,0.07,49.90
13,-0.08,1.01,0.09,44.31
13,0.04,1.03,0.09,44.31
13,0.05,0.98,0.15,43.86
13,0.05,0.98,0.17,46.03
13,-0.06,0.98,0.17,50.58
13,-0.14,0.98,0.14,50.58
13,-0.14,1.00,0.09,40.95
13,-0.10,1.00,0.09,43.33
13,0.01,1.04,0.09,43.33
13,0.06,1.00,0.13,46.09
13,0.06,1.00,0.18,41.04
13,-0.03,0.98,0.18,41.04
13,-0.14,0.99,0.15,46.47
13,-0.14,0.99,0.09,39.31
13,-0.12,0.99,0.09,39.65
13,-0.01,1.04,0.09,44.35
13,-0.01,1.02,0.11,42.23
13,0.07,1.02,0.11,45.91
13,0.00,0.97,0.17,45.91
13,0.00,0.99,0.16,43.92
13,-0.12,0.99,0.17,45.21
13,-0.14,0.98,0.11,45.21
13,-0.05,1.03,0.08,40.13
13,-0.05,1.03,0.11,41.35
13,0.06,1.02,0.11,41.26
13,0.03,0.97,0.17,41.26
13,0.03,0.99,0.16,45.77
13,-0.11,0.99,0.16,51.74
13,-0.14,0.98,0.11,51.74
13,-0.14,1.02,0.09,43.22
13,-0.08,1.02,0.09,43.73
13,0.05,1.03,0.09,43.73
13,0.05,0.99,0.15,51.04
13,0.05,0.99,0.17,43.20
13,-0.06,0.98,0.17,43.20
13,-0.15,0.98,0.12,43.67
13,-0.15,0.94,0.09,50.46
13,-0.10,1.00,0.09,50.60
13,0.03,1.04,0.09,38.06
13,0.03,1.00,0.14,46.07
13,0.06,1.00,0.14,42.99
13,-0.04,0.98,0.17,42.99
13,-0.01,0.98,0.14,44.15
13,-0.14,0.98,0.16,46.00
13,-0.12,0.99,0.09,46.00
13,-0.00,1.04,0.09,42.21
13,-0.00,1.04,0.12,43.80
13,0.07,1.01,0.12,44.48
13,-0.02,0.98,0.18,42.13
13,-0.02,0.99,0.14,47.42
13,-0.12,0.99,0.14,46.34
13,-0.13,0.98,0.09,46.34
13,-0.13,1.04,0.09,45.73
13,-0.04,1.04,0.11,45.80
13,0.06,1.02,0.11,45.80
13,0.02,0.97,0.17,43.79
13,0.02,0.97,0.16,44.39
13,-0.09,1.01,0.16,44.39
13,-0.15,0.97,0.12,42.78
13,-0.15,0.96,0.09,42.14
13,-0.06,1.03,0.09,42.20
13,0.05,1.03,0.10,41.41
13,0.05,0.99,0.15,41.00
13,0.04,0.99,0.15,44.30
13,-0.08,0.99,0.16,44.30
13,-0.08,0.99,0.13,46.40
13,-0.14,0.99,0.15,45.65
13,-0.09,1.01,0.09,45.65
13,0.03,1.03,0.10,46.14
13,0.03,1.03,0.13,46.40
13,0.05,0.99,0.13,46.18
13,-0.04,0.98,0.17,44.62
13,-0.04,0.98,0.14,43.15
13,-0.15,0.98,0.14,44.05
13,-0.11,0.99,0.09,44.05
13,-0.11,1.03,0.09,40.12
13,0.00,1.03,0.12,49.27
13,0.07,1.01,0.12,49.27
13,0.12,0.97,0.17,47.10
13,-0.01,0.97,0.14,44.22
13,-0.12,0.99,0.14,44.22
13,-0.12,0.99,0.11,44.35
13,-0.12,0.98,0.08,39.34
13,-0.04,1.04,0.08,39.53
13,0.06,1.02,0.11,45.02
13,0.06,0.97,0.18,44.02
13,0.01,0.97,0.18,44.16
13,-0.11,0.99,0.16,44.16
13,-0.07,0.98,0.11,43.72
13,-0.14,0.98,0.08,48.64
13,-0.05,1.03,0.08,48.64
13,0.05,1.02,0.10,39.06
13,0.05,1.02,0.16,45.68
13,0.04,0.98,0.16,45.46
13,-0.08,0.99,0.16,42.32
13,-0.08,0.97,0.11,43.84
13,-0.14,0.97,0.11,45.33
13,-0.08,1.02,0.08,45.33
13,-0.08,1.03,0.09,51.04
13,0.03,1.03,0.08,40.72
13,0.05,0.99,0.14,40.72
13,0.01,0.97,0.17,42.18
13,-0.05,0.97,0.13,43.83
13,-0.14,0.98,0.13,43.83
13,-0.11,1.00,0.09,41.18
13,-0.11,0.97,0.08,45.98
13,0.01,1.04,0.08,45.90
13,0.06,1.00,0.13,48.25
13,0.06,0.97,0.17,47.38
13,-0.02,0.97,0.17,45.38
13,-0.13,0.99,0.13,45.38
13,-0.13,0.98,0.10,49.93
13,-0.13,0.98,0.08,47.08
13,-0.02,1.04,0.08,47.08
13,0.07,1.01,0.12,46.19
13,0.07,1.01,0.17,41.63
13,0.00,0.98,0.17,41.84
13,-0.11,0.99,0.16,39.49
13,-0.11,0.98,0.11,46.32
13,-0.14,0.98,0.11,46.99
13,-0.05,1.03,0.08,46.99
13,-0.01,1.02,0.12,42.88
13,0.05,1.02,0.09,47.51
13,0.04,0.99,0.16,47.51
13,-0.09,0.99,0.16,42.55
13,-0.09,0.99,0.12,50.19
13,-0.14,0.98,0.12,50.19
13,-0.08,1.02,0.08,44.48
13,-0.08,1.03,0.10,39.90
13,0.04,1.03,0.10,40.46
13,0.05,0.99,0.15,43.60
13,0.05,0.98,0.17,38.95
13,-0.06,0.98,0.17,43.51
13,-0.15,0.98,0.13,43.51
13,-0.16,1.00,0.09,44.02
13,-0.10,1.00,0.09,40.42
13,0.02,1.03,0.09,40.42
13,0.06,1.00,0.13,40.22
13,0.06,1.00,0.17,42.88
13,-0.03,0.97,0.17,42.24
13,-0.13,0.99,0.14,50.07
13,-0.13,1.00,0.10,45.45
13,-0.12,1.00,0.10,43.97
13,-0.02,1.04,0.08,43.97
13,-0.06,1.01,0.12,45.99
13,0.07,1.01,0.10,43.78
13,0.01,0.98,0.17,43.78
13,-0.12,0.99,0.16,50.26
13,-0.12,0.99,0.11,45.91
13,-0.13,0.98,0.11,45.91
13,-0.05,1.04,0.08,41.07
13,-0.05,1.02,0.10,47.24
13,0.06,1.02,0.10,47.43
14,0.04,0.99,0.17,48.25
14,-0.06,0.99,0.17,48.20
14,-0.14,0.98,0.13,48.20
14,-0.16,1.01,0.09,43.23
14,-0.10,1.01,0.09,42.81
14,0.01,1.04,0.09,42.81
14,0.06,1.00,0.13,37.62
14,0.06,1.00,0.17,43.49
14,-0.04,0.97,0.17,43.49
14,-0.14,0.99,0.13,42.70
14,-0.14,1.00,0.09,49.89
14,-0.12,1.00,0.09,49.48
14,-0.00,1.04,0.09,45.57
14,-0.00,1.00,0.12,38.97
14,0.06,1.00,0.12,46.40
14,0.00,0.98,0.16,46.40
14,0.01,0.99,0.15,41.03
14,-0.12,0.99,0.10,42.98
14,-0.13,0.98,0.10,42.98
14,-0.03,1.04,0.09,45.28
14,-0.03,1.02,0.11,41.43
14,0.06,1.02,0.11,41.40
14,0.02,0.98,0.17,45.32
14,0.02,0.99,0.15,42.99
14,-0.10,0.99,0.15,41.71
14,-0.14,0.98,0.11,41.71
14,-0.13,1.03,0.08,40.06
14,-0.07,1.03,0.10,44.39
14,0.06,1.03,0.10,44.39
14,0.04,0.98,0.16,42.15
14,0.04,0.98,0.18,42.01
14,-0.07,0.99,0.18,42.01
14,-0.14,0.98,0.11,46.71
14,-0.14,0.95,0.09,47.02
14,-0.10,1.01,0.09,47.53
14,0.02,1.04,0.10,42.83
14,0.02,1.00,0.14,44.37
14,0.05,1.00,0.16,45.38
14,-0.04,0.98,0.16,45.38
14,-0.01,0.98,0.12,40.55
14,-0.14,0.98,0.09,41.79
14,-0.11,0.99,0.09,41.79
14,0.00,1.04,0.09,44.47
14,0.00,1.00,0.12,47.71
14,0.07,1.00,0.12,47.30
14,-0.02,0.97,0.17,47.30
14,-0.02,0.99,0.14,46.94
14,-0.13,0.99,0.14,42.93
14,-0.12,0.98,0.11,42.93
14,-0.09,1.04,0.08,42.61
14,-0.03,1.04,0.11,39.85
14,0.06,1.02,0.11,39.85
14,0.01,0.97,0.17,40.98
14,0.01,0.97,0.15,44.08
14,-0.11,0.99,0.15,44.08
14,-0.12,0.98,0.11,40.54
14,-0.12,0.97,0.09,40.37
14,-0.05,1.04,0.09,45.82
14,0.04,1.03,0.11,45.82
14,0.04,0.98,0.17,44.50
14,0.04,0.98,0.15,43.67
14,-0.08,0.99,0.15,43.67
14,-0.08,0.98,0.13,51.86
14,-0.14,0.98,0.08,45.49
14,-0.08,1.02,0.08,45.49
14,0.04,1.04,0.10,40.34
14,0.04,1.05,0.15,46.03
14,0.05,0.99,0.15,46.08
14,-0.06,0.97,0.17,43.73
14,-0.06,0.99,0.13,43.01
14,-0.13,0.99,0.13,46.86
14,-0.11,1.00,0.10,46.86
14,-0.11,1.03,0.09,40.60
14,0.01,1.03,0.12,48.23
14,0.06,1.01,0.12,48.23
14,-0.03,0.98,0.18,44.89
14,-0.03,0.98,0.13,41.19
14,-0.13,0.99,0.13,41.19
14,-0.12,0.99,0.09,48.99
14,-0.12,0.97,0.08,44.41
14,-0.02,1.04,0.08,49.93
14,0.06,1.02,0.12,49.93
14,0.06,0.97,0.17,41.79
14,0.01,0.97,0.15,40.76
14,-0.11,0.98,0.15,40.76
14,-0.08,0.97,0.11,41.99
14,-0.14,0.97,0.08,44.35
14,-0.05,1.03,0.08,44.35
14,0.06,1.03,0.11,44.05
14,0.06,1.05,0.16,41.98
14,0.03,0.99,0.16,41.76
14,-0.09,0.99,0.15,44.11
14,-0.09,0.98,0.12,44.40
14,-0.14,0.98,0.12,46.49
14,-0.08,1.02,0.08,46.49
14,-0.09,1.02,0.10,45.69
14,0.04,1.02,0.09,47.07
14,0.04,0.99,0.15,47.07
14,-0.07,0.99,0.17,48.31
14,-0.07,0.99,0.12,42.46
14,-0.14,0.99,0.12,43.00
14,-0.10,1.01,0.08,39.09
14,-0.10,1.04,0.10,42.68
14,0.02,1.04,0.10,40.87
14,0.06,1.00,0.15,40.87
14,0.06,0.98,0.17,43.64
14,-0.04,0.98,0.13,44.74
14,-0.13,0.98,0.13,44.74
14,-0.18,0.99,0.10,47.16
14,-0.11,0.99,0.08,40.22
14,-0.00,1.05,0.08,40.22
14,0.06,1.01,0.11,42.15
14,0.06,1.04,0.17,43.89
14,-0.00,0.98,0.17,44.04
14,-0.11,0.99,0.15,40.91
14,-0.11,0.98,0.10,45.42
14,-0.14,0.98,0.10,42.37
14,-0.04,1.03,0.08,42.37
14,-0.01,1.02,0.11,40.74
14,0.05,1.02,0.10,43.78
14,0.02,0.98,0.16,43.78
14,-0.09,0.99,0.16,42.72
14,-0.09,0.99,0.11,41.03
14,-0.14,0.98,0.11,41.29
14,-0.07,1.03,0.08,42.07
14,-0.07,1.03,0.11,40.47
14,0.04,1.03,0.11,43.30
14,0.04,0.98,0.15,43.30
14,0.04,0.99,0.18,39.36
14,-0.07,0.99,0.13,42.99
14,-0.13,0.99,0.13,42.99
14,-0.16,1.01,0.09,40.72
14,-0.10,1.01,0.10,45.06
14,0.01,1.03,0.10,45.06
14,0.06,1.00,0.14,47.07
14,0.06,0.99,0.17,45.34
14,-0.04,0.99,0.17,45.17
14,-0.14,0.98,0.15,41.25
14,-0.14,1.00,0.10,45.86
14,-0.12,1.00,0.10,43.05
14,-0.01,1.04,0.09,43.05
14,-0.00,1.00,0.12,49.97
14,0.06,1.00,0.11,43.44
14,-0.01,0.97,0.18,43.44
14,-0.12,0.99,0.15,43.96
14,-0.12,0.99,0.10,48.87
14,-0.12,0.98,0.10,49.00
14,-0.03,1.04,0.08,43.52
14,-0.03,1.01,0.11,41.59
14,0.04,1.01,0.11,42.83
14,0.03,0.97,0.17,42.83
14,0.02,0.99,0.16,43.16
14,-0.10,0.99,0.17,43.84
14,-0.14,0.98,0.11,43.84
14,-0.06,1.02,0.09,41.97
14,-0.06,1.02,0.10,37.26
14,0.06,1.03,0.10,37.26
14,0.04,0.98,0.16,40.14
14,0.04,0.98,0.17,49.70
14,-0.09,0.98,0.17,49.97
14,-0.14,0.98,0.13,40.57
14,-0.14,1.02,0.08,43.04
14,-0.08,1.02,0.09,45.21
14,0.03,1.04,0.09,45.21
14,0.05,0.99,0.14,37.04
14,0.05,0.99,0.15,46.84
14,-0.05,0.99,0.15,46.84
14,-0.14,0.99,0.12,43.00
14,-0.14,1.00,0.10,41.82
14,-0.12,1.00,0.10,42.23
14,0.00,1.03,0.09,43.80
14,0.00,1.01,0.13,42.72
14,0.06,1.01,0.13,45.65
14,-0.01,0.98,0.17,45.65
14,-0.06,0.99,0.13,44.97
14,-0.12,0.99,0.16,37.29
14,-0.13,0.99,0.10,37.29
14,-0.03,1.03,0.09,42.16
14,-0.03,1.03,0.11,45.35
14,0.06,1.01,0.11,45.21
14,0.01,0.99,0.17,44.43
14,0.01,0.99,0.16,45.91
14,-0.11,0.99,0.16,46.52
14,-0.14,0.98,0.11,46.52
14,-0.14,1.03,0.08,44.60
14,-0.05,1.03,0.11,41.27
14,0.05,1.02,0.11,41.27
14,0.04,0.98,0.15,44.58
14,0.04,0.98,0.16,47.25
14,-0.08,0.99,0.16,47.25
14,-0.14,0.98,0.12,46.51
14,-0.14,0.96,0.09,42.74
14,-0.08,1.02,0.09,42.97
14,0.03,1.03,0.10,37.48
14,0.03,0.99,0.15,48.36
14,0.05,0.99,0.15,41.86
14,-0.05,0.99,0.17,41.86
14,-0.01,0.99,0.13,45.71
14,-0.13,0.99,0.15,42.96
14,-0.10,1.00,0.09,42.96
14,0.02,1.03,0.09,40.32
14,0.02,1.03,0.15,45.24
14,0.06,1.00,0.15,44.85
14,-0.03,0.98,0.17,45.63
14,-0.03,0.99,0.13,48.58
14,-0.12,0.99,0.13,43.45
14,-0.12,1.00,0.09,43.45
14,-0.12,1.03,0.09,44.53
14,-0.02,1.03,0.12,40.83
14,0.06,1.00,0.12,40.83
14,0.00,0.98,0.17,40.39
14,0.00,0.98,0.15,43.79
14,-0.11,0.98,0.15,43.79
14,-0.14,0.98,0.11,42.99
14,-0.14,0.97,0.09,43.36
14,-0.04,1.03,0.09,43.15
14,0.06,1.02,0.11,40.80
14,0.06,0.98,0.16,43.61
14,0.03,0.98,0.16,43.77
14,-0.09,0.98,0.16,43.77
14,-0.07,0.99,0.12,44.48
14,-0.13,0.99,0.08,47.34
14,-0.07,1.03,0.08,47.34
14,0.04,1.02,0.11,42.07
14,0.04,1.02,0.15,44.57
14,0.05,0.99,0.15,44.11
14,-0.06,0.98,0.16,48.03
14,-0.06,0.99,0.12,46.13
14,-0.14,0.99,0.12,47.29
14,-0.10,1.01,0.09,47.29
14,-0.11,1.03,0.10,43.73
14,0.01,1.03,0.07,42.21
14,0.06,1.00,0.13,42.21
15,-0.01,0.97,0.14,42.37
15,-0.11,0.99,0.14,42.37
15,-0.13,0.99,0.10,47.80
15,-0.13,0.96,0.08,44.79
15,-0.04,1.03,0.08,45.31
15,0.05,1.02,0.11,45.31
15,0.05,0.97,0.16,45.11
15,0.02,0.97,0.16,44.51
15,-0.09,1.00,0.15,44.51
15,-0.07,0.99,0.11,45.49
15,-0.14,0.99,0.09,47.97
15,-0.07,1.02,0.09,47.97
15,0.04,1.03,0.10,45.32
15,0.04,1.03,0.14,41.47
15,0.05,0.99,0.14,41.66
15,-0.07,0.99,0.18,45.58
15,-0.07,0.98,0.11,40.71
15,-0.13,0.98,0.11,47.32
15,-0.09,1.02,0.09,47.32
15,-0.09,1.03,0.10,43.00
15,0.03,1.03,0.06,41.74
15,0.05,1.00,0.13,41.74
15,0.03,0.98,0.17,44.19
15,-0.03,0.98,0.13,44.94
15,-0.13,0.99,0.13,44.94
15,-0.11,1.00,0.10,45.85
15,-0.11,0.97,0.09,43.78
15,-0.00,1.03,0.09,43.77
15,0.05,1.00,0.13,43.77
15,0.05,0.98,0.17,41.69
15,-0.01,0.98,0.17,41.19
15,-0.12,0.98,0.14,41.19
15,-0.07,0.99,0.11,49.47
15,-0.13,0.99,0.09,46.28
15,-0.03,1.03,0.09,46.28
15,0.04,1.01,0.12,45.02
15,0.04,1.01,0.16,42.60
15,0.01,0.97,0.16,43.00
15,-0.10,0.98,0.15,46.91
15,-0.10,0.97,0.11,43.89
15,-0.14,0.97,0.11,46.53
15,-0.06,1.02,0.09,46.53
15,-0.06,1.03,0.11,46.68
15,0.04,1.03,0.10,43.08
15,0.04,0.98,0.16,43.08
15,0.04,0.98,0.16,40.76
15,-0.08,0.98,0.12,47.16
15,-0.14,0.98,0.12,47.16
15,-0.09,1.02,0.07,40.86
15,-0.09,1.03,0.11,42.40
15,0.03,1.03,0.11,42.64
15,0.05,1.00,0.14,41.85
15,0.05,0.97,0.18,45.16
15,-0.05,0.97,0.18,44.13
15,-0.12,0.99,0.14,44.13
15,-0.12,1.00,0.09,45.98
15,-0.12,1.00,0.10,42.60
15,0.00,1.03,0.10,42.60
15,0.06,1.00,0.14,49.00
15,0.06,1.00,0.16,46.20
15,-0.02,0.97,0.16,46.22
15,-0.12,0.99,0.14,39.17
15,-0.12,0.99,0.10,38.62
15,-0.12,0.99,0.10,47.21
15,-0.02,1.03,0.09,47.21
15,-0.00,1.01,0.12,44.48
15,0.06,1.01,0.10,44.37
15,0.02,0.98,0.16,44.37
15,-0.11,0.99,0.14,36.73
15,-0.11,0.99,0.11,45.97
15,-0.13,0.98,0.11,45.97
15,-0.06,1.03,0.09,39.48
15,-0.06,1.02,0.11,45.39
15,0.06,1.02,0.11,46.07
15,0.02,0.98,0.17,39.02
15,0.02,0.99,0.16,48.49
15,-0.09,0.99,0.16,40.71
15,-0.13,0.99,0.12,40.71
15,-0.15,1.02,0.09,42.09
15,-0.08,1.02,0.11,43.43
15,0.04,1.03,0.11,43.43
15,0.04,0.99,0.14,45.88
15,0.04,0.99,0.16,43.22
15,-0.06,0.99,0.16,43.78
15,-0.14,0.99,0.12,41.43
15,-0.14,1.00,0.09,46.56
15,-0.11,1.00,0.09,42.96
15,0.01,1.03,0.09,42.96
15,0.05,1.00,0.13,41.43
15,0.05,1.00,0.17,42.36
15,-0.03,0.98,0.17,42.36
15,-0.13,0.99,0.15,43.17
15,-0.13,0.99,0.10,41.52
15,-0.12,0.99,0.10,41.82
15,-0.01,1.03,0.09,48.09
15,-0.01,1.01,0.13,43.43
15,0.05,1.01,0.13,41.52
15,0.00,0.98,0.18,41.52
15,0.00,0.98,0.15,45.72
15,-0.11,0.98,0.17,48.73
15,-0.12,0.99,0.11,48.73
15,-0.11,1.03,0.08,45.15
15,-0.05,1.03,0.12,42.33
15,0.05,1.01,0.12,42.33
15,0.03,0.99,0.16,46.78
15,0.03,0.99,0.15,43.84
15,-0.09,0.99,0.15,44.47
15,-0.13,0.98,0.11,49.17
15,-0.13,1.03,0.08,50.05
15,-0.08,1.03,0.08,41.80
15,0.04,1.02,0.11,41.80
15,0.04,0.99,0.15,44.36
15,0.04,0.99,0.16,44.95
15,-0.06,0.98,0.16,44.95
15,-0.14,0.98,0.12,42.53
15,-0.14,0.98,0.09,43.00
15,-0.10,1.01,0.09,42.33
15,0.02,1.03,0.10,43.11
15,0.02,1.06,0.14,46.46
15,0.06,1.00,0.14,47.81
15,-0.04,0.98,0.17,47.81
15,-0.04,0.99,0.13,48.19
15,-0.12,0.99,0.15,48.00
15,-0.11,1.00,0.09,48.00
15,-0.06,1.04,0.08,41.60
15,-0.00,1.04,0.12,50.85
15,0.05,1.02,0.12,50.85
15,-0.00,0.97,0.17,47.37
15,-0.00,0.99,0.14,47.26
15,-0.11,0.99,0.14,47.19
15,-0.13,0.98,0.10,40.14
15,-0.13,1.03,0.09,43.21
15,-0.03,1.03,0.09,43.22
15,0.05,1.01,0.12,43.22
15,0.02,0.97,0.17,41.89
15,0.02,0.97,0.15,37.03
15,-0.09,0.99,0.15,37.03
15,-0.14,0.98,0.11,42.31
15,-0.14,0.98,0.09,41.00
15,-0.07,1.02,0.09,41.19
15,0.04,1.02,0.11,45.89
15,0.04,1.05,0.15,44.28
15,0.04,0.99,0.15,45.06
15,-0.07,0.98,0.16,45.06
15,-0.07,0.98,0.11,41.31
15,-0.13,0.98,0.09,42.62
15,-0.09,1.01,0.09,42.62
15,0.02,1.03,0.10,43.53
15,0.02,1.03,0.14,42.72
15,0.05,0.99,0.14,42.72
15,-0.04,0.97,0.17,47.36
15,-0.04,0.98,0.13,46.06
15,-0.13,0.98,0.13,45.65
15,-0.11,1.00,0.10,45.65
15,-0.11,1.02,0.09,43.62
15,0.01,1.02,0.09,41.37
15,0.06,1.00,0.13,41.37
15,0.05,0.98,0.17,45.04
15,-0.02,0.98,0.14,45.19
15,-0.13,0.99,0.14,45.19
15,-0.13,0.99,0.10,44.58
15,-0.13,0.96,0.09,45.38
15,-0.04,1.03,0.09,45.51
15,0.06,1.02,0.12,46.29
15,0.06,0.97,0.17,47.70
15,0.01,0.97,0.17,45.21
15,-0.10,0.99,0.14,45.21
15,-0.07,0.98,0.11,47.04
15,-0.13,0.98,0.09,36.78
15,-0.06,1.03,0.09,36.78
15,0.04,1.03,0.12,41.90
15,0.04,1.03,0.16,48.82
15,0.03,0.98,0.16,48.56
15,-0.08,0.99,0.16,43.86
15,-0.08,0.98,0.11,44.24
15,-0.14,0.98,0.11,44.53
15,-0.09,1.01,0.09,44.53
15,-0.09,1.03,0.10,44.32
15,0.03,1.03,0.09,46.88
15,0.04,0.99,0.15,46.88
15,0.01,0.99,0.16,45.36
15,-0.05,0.99,0.14,45.72
15,-0.13,0.98,0.14,45.72
15,-0.10,1.00,0.09,45.39
15,-0.10,1.03,0.09,46.38
15,0.00,1.03,0.09,46.35
15,0.05,1.00,0.13,44.78
15,0.05,0.98,0.16,41.18
15,-0.02,0.98,0.16,43.19
15,-0.13,0.99,0.14,43.19
15,-0.18,0.99,0.10,45.20
15,-0.12,0.99,0.09,48.39
15,-0.02,1.02,0.09,48.39
15,0.06,1.01,0.12,44.41
15,0.06,1.01,0.17,39.27
15,0.01,0.98,0.17,39.63
15,-0.12,0.99,0.14,47.46
15,-0.12,0.98,0.10,45.14
15,-0.14,0.98,0.10,45.10
15,-0.05,1.03,0.08,45.10
15,-0.05,1.01,0.12,44.84
15,0.05,1.01,0.09,45.09
15,0.03,0.98,0.15,45.09
15,0.04,1.00,0.17,43.60
15,-0.09,1.00,0.11,41.45
15,-0.14,0.98,0.11,41.45
15,-0.08,1.02,0.09,37.47
15,-0.08,1.02,0.09,52.04
15,0.04,1.02,0.09,51.98
15,0.04,0.99,0.15,44.93
15,0.04,0.98,0.17,41.75
15,-0.06,0.98,0.17,42.05
15,-0.13,0.98,0.12,42.05
15,-0.16,1.01,0.09,46.64
15,-0.10,1.01,0.09,44.79
15,0.01,1.03,0.09,44.79
15,0.06,1.01,0.14,47.90
15,0.06,1.01,0.18,46.10
15,-0.03,0.98,0.18,46.11
15,-0.12,0.99,0.14,45.33
15,-0.12,0.94,0.09,44.81
15,-0.12,1.00,0.09,44.03
15,-0.01,1.03,0.09,44.03
15,-0.01,1.02,0.12,39.35
15,0.06,1.02,0.10,47.67
15,-0.01,0.98,0.16,47.67
15,-0.10,0.99,0.15,45.90
15,-0.10,0.99,0.11,44.81
15,-0.13,0.98,0.11,44.81
15,-0.04,1.03,0.09,47.83
15,-0.04,1.02,0.11,46.12
15,0.05,1.02,0.11,46.10
15,0.02,0.98,0.16,45.32
16,-0.07,0.99,0.16,44.09
16,-0.14,0.99,0.12,44.09
16,-0.16,1.00,0.09,46.74
16,-0.09,1.00,0.10,48.14
16,0.02,1.03,0.10,48.14
16,0.05,0.99,0.15,50.11
16,0.05,0.99,0.16,41.58
16,-0.04,0.98,0.16,41.84
16,-0.13,0.99,0.13,44.97
16,-0.13,0.94,0.09,44.38
16,-0.11,1.00,0.09,44.49
16,-0.00,1.03,0.09,44.49
16,-0.00,1.00,0.13,48.74
16,0.04,1.00,0.17,43.78
16,-0.01,0.98,0.17,43.78
16,-0.05,0.98,0.13,45.19
16,-0.12,0.98,0.10,43.89
16,-0.12,0.99,0.10,43.89
16,-0.03,1.03,0.09,47.26
16,-0.03,1.02,0.12,46.09
16,0.05,1.02,0.12,45.49
16,0.01,0.98,0.17,43.92
16,0.01,0.99,0.15,46.76
16,-0.10,0.99,0.15,46.12
16,-0.13,0.98,0.11,46.12
16,-0.13,1.03,0.08,48.16
16,-0.06,1.03,0.11,49.04
16,0.05,1.02,0.11,49.04
16,0.05,0.99,0.15,46.39
16,0.05,0.99,0.16,43.47
16,-0.08,0.99,0.16,43.75
16,-0.13,0.98,0.12,46.10
16,-0.13,0.95,0.08,39.93
16,-0.09,1.01,0.08,45.79
16,0.02,1.02,0.10,45.79
16,0.02,0.99,0.14,42.10
16,0.04,0.99,0.16,43.61
16,-0.05,0.98,0.16,43.61
16,-0.13,0.99,0.13,50.06
16,-0.13,0.99,0.09,42.48
16,-0.11,1.01,0.09,42.48
16,-0.00,1.03,0.10,43.94
16,-0.00,1.00,0.13,45.88
16,0.06,1.00,0.13,45.53
16,-0.02,0.99,0.17,41.62
16,-0.02,0.99,0.14,47.18
16,-0.12,0.99,0.14,46.11
16,-0.12,0.98,0.10,46.11
16,-0.08,1.03,0.09,41.14
16,-0.02,1.03,0.06,48.33
16,0.05,1.01,0.13,48.33
16,0.01,0.99,0.16,38.55
16,0.01,0.99,0.15,46.13
16,-0.10,0.99,0.15,46.02
16,-0.13,0.98,0.11,45.23
16,-0.13,0.96,0.10,42.07
16,-0.06,1.02,0.10,46.29
16,0.04,1.02,0.11,46.29
16,0.03,0.98,0.15,44.20
16,0.03,0.98,0.16,43.05
16,-0.08,0.99,0.16,43.05
16,-0.14,0.99,0.11,44.30
16,-0.14,0.99,0.09,44.44
16,-0.08,1.02,0.09,44.44
16,0.02,1.03,0.10,48.09
16,0.02,1.05,0.15,43.65
16,0.04,0.99,0.15,43.69
16,-0.06,0.99,0.16,45.25
16,-0.06,0.98,0.12,43.38
16,-0.12,0.98,0.12,41.50
16,-0.10,1.01,0.08,41.50
16,-0.12,1.02,0.11,39.94
16,0.01,1.02,0.13,49.63
16,0.05,1.00,0.13,49.63
16,-0.03,0.98,0.16,39.54
16,-0.03,0.99,0.13,39.97
16,-0.12,0.99,0.13,39.90
16,-0.12,0.99,0.09,44.60
16,-0.12,1.03,0.09,40.39
16,-0.03,1.03,0.09,40.89
16,0.06,1.02,0.12,40.89
16,0.12,0.98,0.16,42.16
16,-0.00,0.98,0.14,43.14
16,-0.11,0.99,0.14,43.14
16,-0.13,0.99,0.11,43.25
16,-0.13,0.99,0.10,39.48
16,-0.05,1.03,0.10,39.41
16,0.05,1.02,0.11,44.11
16,0.05,1.05,0.16,48.88
16,0.03,0.99,0.16,44.39
16,-0.09,0.99,0.15,44.39
16,-0.09,0.98,0.11,46.68
16,-0.13,0.98,0.09,47.30
16,-0.07,1.02,0.09,47.30
16,-0.09,1.02,0.11,44.05
16,0.04,1.02,0.15,51.32
16,0.04,0.99,0.15,51.32
16,-0.06,0.99,0.17,47.79
16,-0.06,0.98,0.13,44.63
16,-0.13,0.98,0.13,44.65
16,-0.09,1.01,0.08,41.51
16,-0.09,1.03,0.10,45.73
16,0.01,1.03,0.10,47.75
16,0.05,1.00,0.15,47.75
16,0.03,0.98,0.17,45.48
16,-0.03,0.98,0.13,41.36
16,-0.13,0.98,0.13,41.36
16,-0.11,0.99,0.09,44.40
16,-0.11,0.99,0.11,44.24
16,-0.01,1.03,0.11,44.17
16,0.05,1.00,0.13,43.38
16,0.05,1.04,0.16,45.07
16,-0.00,0.98,0.16,42.60
16,-0.12,1.00,0.14,42.60
16,-0.12,0.99,0.10,43.35
16,-0.12,0.99,0.09,41.14
16,-0.04,1.02,0.09,41.14
16,-0.02,1.01,0.12,45.25
16,0.04,1.01,0.16,40.67
16,0.02,0.98,0.16,40.67
16,-0.10,0.99,0.15,39.31
16,-0.10,0.98,0.11,44.90
16,-0.12,0.98,0.11,45.10
16,-0.07,1.02,0.08,44.32
16,-0.07,1.03,0.11,41.63
16,0.03,1.03,0.11,48.60
16,0.04,0.99,0.15,48.60
16,0.06,0.98,0.15,44.82
16,-0.06,0.98,0.18,44.04
16,-0.13,0.99,0.12,44.04
16,-0.09,1.02,0.09,43.80
16,-0.09,1.02,0.11,46.81
16,0.02,1.03,0.11,46.74
16,0.05,1.00,0.15,42.82
16,0.05,0.99,0.17,41.92
16,-0.04,0.99,0.17,47.35
16,-0.13,0.97,0.14,47.35
16,-0.13,1.01,0.09,40.87
16,-0.11,1.01,0.09,41.49
16,-0.01,1.03,0.09,41.49
16,-0.01,1.01,0.12,39.66
16,0.05,1.01,0.16,42.43
16,-0.01,0.98,0.16,42.43
16,-0.12,0.99,0.13,44.16
16,-0.12,0.99,0.10,44.04
16,-0.13,0.99,0.10,44.12
16,-0.04,1.02,0.09,42.55
16,-0.04,1.01,0.12,35.79
16,0.05,1.01,0.12,39.49
16,0.01,0.98,0.15,39.49
16,0.02,0.99,0.15,40.00
16,-0.10,0.99,0.17,47.25
16,-0.14,0.99,0.11,47.25
16,-0.06,1.02,0.08,46.13
16,-0.06,1.02,0.12,42.78
16,0.04,1.03,0.12,42.86
16,0.03,0.98,0.16,45.21
16,0.03,0.98,0.15,40.74
16,-0.07,0.98,0.15,47.29
16,-0.13,0.98,0.12,47.29
16,-0.13,1.01,0.08,43.90
16,-0.08,1.01,0.11,53.07
16,0.02,1.02,0.11,53.07
16,0.04,0.99,0.14,41.03
16,0.04,0.99,0.16,47.74
16,-0.05,0.99,0.16,47.74
16,-0.12,0.99,0.12,42.72
16,-0.12,0.95,0.09,41.37
16,-0.10,1.01,0.09,40.79
16,-0.00,1.02,0.09,44.71
16,-0.00,0.99,0.13,43.41
16,0.05,0.99,0.13,42.25
16,-0.02,0.98,0.17,42.25
16,-0.06,0.98,0.14,47.02
16,-0.12,0.98,0.17,40.62
16,-0.12,1.00,0.11,40.62
16,-0.02,1.03,0.10,43.46
16,-0.02,1.01,0.13,41.27
16,0.05,1.01,0.13,40.89
16,0.01,0.98,0.17,52.64
16,0.01,1.00,0.14,40.69
16,-0.11,1.00,0.14,43.49
16,-0.12,0.98,0.11,43.49
16,-0.12,1.02,0.09,41.14
16,-0.05,1.02,0.11,44.48
16,0.05,1.02,0.11,44.48
16,0.03,0.99,0.16,42.87
16,0.03,0.99,0.15,43.40
16,-0.08,0.99,0.15,43.40
16,-0.13,0.98,0.12,38.20
16,-0.13,0.95,0.09,45.01
16,-0.09,1.01,0.09,44.78
16,0.03,1.02,0.11,49.48
16,0.03,1.00,0.16,43.93
16,0.04,1.00,0.16,41.97
16,-0.05,0.99,0.16,41.97
16,-0.00,0.98,0.13,45.43
16,-0.13,0.98,0.09,39.42
16,-0.10,1.01,0.09,39.42
16,-0.00,1.03,0.10,44.01
16,-0.00,1.06,0.14,40.01
16,0.06,1.00,0.14,40.05
16,-0.03,0.98,0.16,48.67
16,-0.03,0.99,0.14,44.03
16,-0.11,0.99,0.14,43.21
16,-0.12,0.99,0.10,43.21
16,-0.08,1.02,0.10,42.87
16,-0.02,1.02,0.07,44.67
16,0.05,1.01,0.13,44.67
16,0.01,0.98,0.17,47.81
16,0.01,0.98,0.14,43.94
16,-0.10,0.99,0.14,44.24
16,-0.13,0.98,0.10,45.02
16,-0.13,0.96,0.09,42.10
16,-0.05,1.02,0.09,41.14
16,0.05,1.01,0.12,41.14
16,0.05,0.99,0.16,44.19
16,0.02,0.99,0.16,42.46
16,-0.09,0.99,0.16,42.46
16,-0.06,0.98,0.11,44.31
16,-0.13,0.98,0.08,42.01
16,-0.07,1.02,0.08,42.01
16,0.03,1.02,0.11,41.55
16,0.03,1.05,0.15,40.43
16,0.04,0.99,0.15,40.46
16,-0.06,0.99,0.16,45.16
16,-0.06,0.98,0.13,44.50
16,-0.12,0.98,0.13,47.20
16,-0.10,1.01,0.09,47.20
16,-0.11,1.02,0.10,45.19
16,0.01,1.02,0.08,43.02
16,0.05,1.01,0.14,43.02
16,-0.04,0.99,0.16,45.62
17,-0.11,0.99,0.15,41.85
17,-0.12,1.00,0.10,41.10
17,-0.12,0.96,0.09,42.43
17,-0.04,1.03,0.09,40.58
17,0.04,1.02,0.12,40.58
17,0.04,0.98,0.16,45.63
17,0.02,0.98,0.15,45.58
17,-0.10,0.99,0.15,45.58
17,-0.08,0.98,0.11,46.41
17,-0.14,0.98,0.09,44.35
17,-0.06,1.01,0.09,44.35
17,0.04,1.01,0.11,42.33
17,0.04,1.05,0.16,43.93
17,0.03,0.99,0.16,44.16
17,-0.08,0.98,0.15,40.24
17,-0.08,0.98,0.12,41.90
17,-0.13,0.98,0.12,42.00
17,-0.09,1.01,0.09,42.00
17,-0.10,1.02,0.10,43.43
17,0.02,1.02,0.09,46.85
17,0.04,0.99,0.15,46.85
17,-0.05,0.99,0.16,46.25
17,-0.05,0.99,0.14,46.16
17,-0.13,0.98,0.14,46.43
17,-0.10,1.00,0.09,40.94
17,-0.10,1.03,0.11,40.77
17,-0.00,1.03,0.11,43.57
17,0.04,1.00,0.13,43.57
17,0.04,0.98,0.16,43.60
17,-0.02,0.98,0.14,43.94
17,-0.12,1.00,0.14,43.94
17,-0.06,1.00,0.10,46.51
17,-0.13,1.00,0.09,42.07
17,-0.03,1.03,0.09,42.07
17,0.04,1.01,0.12,45.74
17,0.04,1.04,0.17,49.46
17,0.01,0.97,0.17,49.57
17,-0.11,0.99,0.14,42.52
17,-0.11,0.99,0.11,45.30
17,-0.12,0.99,0.11,47.49
17,-0.06,1.02,0.09,47.49
17,-0.02,1.02,0.12,45.44
17,0.04,1.02,0.09,42.79
17,0.04,0.99,0.15,42.79
17,-0.09,0.99,0.16,47.22
17,-0.09,0.99,0.12,43.78
17,-0.13,0.98,0.12,43.49
17,-0.08,1.01,0.09,43.49
17,-0.08,1.03,0.12,42.35
17,0.02,1.03,0.12,38.22
17,0.04,1.00,0.13,38.22
17,0.01,0.99,0.17,42.48
17,-0.05,0.99,0.13,40.05
17,-0.13,0.99,0.13,40.05
17,-0.10,1.00,0.09,39.23
17,-0.10,1.00,0.10,42.93
17,0.00,1.03,0.10,42.93
17,0.05,1.00,0.14,39.31
17,0.05,1.05,0.16,38.02
17,-0.02,0.99,0.16,38.23
17,-0.13,0.99,0.13,46.85
17,-0.13,0.99,0.09,45.05
17,-0.12,0.99,0.09,43.83
17,-0.03,1.02,0.09,43.83
17,-0.01,1.01,0.12,45.16
17,0.05,1.01,0.16,46.77
17,-0.00,0.97,0.16,46.77
17,-0.11,0.99,0.15,44.39
17,-0.11,0.99,0.11,47.02
17,-0.13,0.99,0.11,46.97
17,-0.04,1.02,0.09,50.89
17,-0.04,1.02,0.12,47.25
17,0.04,1.02,0.12,45.35
17,0.02,0.98,0.16,45.35
17,0.05,0.99,0.14,46.06
17,-0.08,0.99,0.17,42.03
17,-0.14,0.99,0.10,42.03
17,-0.07,1.01,0.09,45.03
17,-0.07,1.01,0.10,43.53
17,0.03,1.02,0.10,43.53
17,0.04,0.99,0.15,40.32
17,0.04,0.98,0.16,45.73
17,-0.05,0.98,0.16,45.53
17,-0.12,0.99,0.13,46.31
17,-0.12,1.01,0.09,41.01
17,-0.09,1.01,0.10,41.68
17,0.01,1.04,0.10,41.68
17,0.05,1.00,0.14,43.03
17,0.05,1.00,0.17,42.49
17,-0.03,0.98,0.17,42.49
17,-0.13,1.00,0.13,42.50
17,-0.13,0.99,0.10,39.60
17,-0.12,0.99,0.10,39.46
17,-0.02,1.03,0.09,55.91
17,-0.02,1.00,0.13,46.93
17,0.06,1.00,0.13,47.19
17,0.00,0.98,0.16,47.19
17,0.02,0.98,0.14,43.82
17,-0.11,0.98,0.17,46.90
17,-0.13,0.99,0.11,46.90
17,-0.04,1.03,0.09,41.13
17,-0.04,1.03,0.11,41.09
17,0.04,1.02,0.11,40.94
17,0.03,0.98,0.16,40.94
17,0.03,0.98,0.15,43.43
17,-0.09,0.98,0.15,43.08
17,-0.13,0.99,0.12,43.08
17,-0.13,1.02,0.10,42.49
17,-0.07,1.02,0.11,47.22
17,0.03,1.03,0.11,47.22
17,0.03,0.99,0.15,43.12
17,0.03,0.99,0.16,43.99
17,-0.07,0.99,0.16,43.99
17,-0.13,0.99,0.13,43.10
17,-0.13,0.95,0.09,40.56
17,-0.10,1.01,0.09,40.33
17,0.02,1.02,0.10,45.03
17,0.02,1.01,0.15,41.95
17,0.05,1.01,0.15,41.60
17,-0.04,0.98,0.17,41.60
17,-0.05,0.99,0.13,49.29
17,-0.12,0.99,0.16,44.16
17,-0.11,1.00,0.10,44.16
17,-0.01,1.02,0.10,45.14
17,-0.01,1.02,0.14,45.80
17,0.05,1.01,0.14,45.71
17,-0.01,0.98,0.16,46.50
17,-0.01,0.99,0.14,47.02
17,-0.11,0.99,0.14,49.36
17,-0.12,0.99,0.11,49.36
17,-0.10,1.02,0.09,50.38
17,-0.04,1.02,0.12,43.82
17,0.04,1.02,0.12,43.82
17,0.01,0.98,0.15,38.92
17,0.01,0.98,0.14,43.03
17,-0.09,1.00,0.14,43.03
17,-0.13,0.99,0.10,42.02
17,-0.13,0.96,0.08,44.73
17,-0.06,1.02,0.08,44.72
17,0.04,1.02,0.11,50.21
17,0.04,0.99,0.16,44.96
17,0.03,0.99,0.16,45.11
17,-0.07,1.00,0.15,45.11
17,-0.07,0.98,0.12,41.78
17,-0.13,0.98,0.09,42.10
17,-0.08,1.01,0.09,42.10
17,0.02,1.02,0.11,47.86
17,0.02,1.06,0.13,45.89
17,0.05,1.00,0.13,45.92
17,-0.05,0.97,0.15,48.27
17,-0.05,0.98,0.13,42.58
17,-0.12,0.98,0.13,42.52
17,-0.09,1.01,0.10,42.52
17,-0.07,1.02,0.10,41.95
17,-0.01,1.02,0.07,45.46
17,0.04,1.01,0.13,45.46
17,-0.01,0.98,0.16,44.72
17,-0.01,0.98,0.15,44.98
17,-0.11,0.98,0.15,44.98
17,-0.12,1.00,0.10,44.42
17,-0.12,0.96,0.08,43.90
17,-0.03,1.02,0.08,43.95
17,0.05,1.01,0.13,46.30
17,0.05,0.99,0.16,45.20
17,0.01,0.99,0.16,43.37
17,-0.10,0.99,0.15,43.37
17,-0.06,0.98,0.11,46.39
17,-0.13,0.98,0.09,45.61
17,-0.05,1.01,0.09,45.61
17,0.04,1.02,0.11,41.13
17,0.04,1.05,0.15,41.79
17,0.03,0.99,0.15,42.02
17,-0.07,1.00,0.14,49.07
17,-0.07,0.98,0.12,43.68
17,-0.13,0.98,0.12,45.65
17,-0.08,1.01,0.10,45.65
17,-0.10,1.03,0.11,40.54
17,0.03,1.03,0.08,43.24
17,0.04,1.00,0.14,43.24
17,-0.06,0.98,0.16,45.87
17,-0.06,0.98,0.12,47.36
17,-0.13,0.99,0.12,47.36
17,-0.10,1.01,0.09,43.65
17,-0.10,1.03,0.09,50.30
17,0.01,1.03,0.09,46.57
17,0.04,1.00,0.12,46.57
17,0.04,0.98,0.16,45.02
17,-0.02,0.98,0.13,46.55
17,-0.12,0.99,0.13,46.55
17,-0.12,0.99,0.11,44.53
17,-0.12,0.99,0.10,43.39
17,-0.02,1.03,0.10,43.39
17,0.05,1.02,0.12,41.73
17,0.05,1.04,0.16,44.41
17,0.00,0.98,0.16,43.97
17,-0.11,0.98,0.14,44.76
17,-0.11,0.99,0.11,44.09
17,-0.13,0.99,0.11,48.08
17,-0.05,1.02,0.10,48.08
17,-0.02,1.02,0.11,44.45
17,0.04,1.02,0.10,45.36
17,0.02,0.97,0.16,45.36
17,-0.09,0.99,0.15,44.46
17,-0.09,0.99,0.11,45.04
17,-0.13,0.99,0.11,45.00
17,-0.08,1.02,0.10,43.44
17,-0.08,1.02,0.11,39.31
17,0.03,1.02,0.11,47.46
17,0.04,0.99,0.15,47.46
17,0.04,0.99,0.15,44.07
17,-0.06,0.99,0.17,43.64
17,-0.13,0.98,0.11,43.64
17,-0.16,1.01,0.09,45.61
17,-0.10,1.01,0.10,41.75
17,0.01,1.02,0.10,41.75
17,0.04,1.01,0.14,43.23
17,0.04,1.05,0.15,42.45
17,-0.02,0.99,0.15,42.48
17,-0.12,0.99,0.14,42.48
17,-0.12,1.00,0.09,43.68
17,-0.11,1.00,0.09,40.43
17,-0.01,1.02,0.10,40.43
17,-0.02,1.01,0.12,46.86
17,0.05,1.01,0.09,45.69
17,-0.00,0.98,0.16,45.69
17,-0.11,0.99,0.14,45.43
17,-0.11,0.99,0.10,43.33
17,-0.12,1.00,0.10,43.68
17,-0.04,1.03,0.09,48.38
17,-0.04,1.01,0.11,49.12
17,0.05,1.01,0.11,48.89
17,0.01,0.98,0.16,48.89
17,0.01,0.99,0.15,42.89
18,-0.13,0.99,0.12,48.08
18,-0.15,1.02,0.09,43.53
18,-0.08,1.02,0.10,37.67
18,0.02,1.03,0.10,37.67
18,0.05,1.00,0.14,43.88
18,0.05,1.00,0.16,44.28
18,-0.04,0.99,0.16,43.94
18,-0.12,0.99,0.12,47.07
18,-0.12,1.00,0.10,45.25
18,-0.10,1.00,0.10,47.19
18,-0.01,1.02,0.10,47.19
18,-0.01,1.00,0.13,41.02
18,0.05,1.00,0.16,44.78
18,-0.01,0.98,0.16,44.78
18,-0.12,0.98,0.13,44.24
18,-0.12,0.98,0.10,44.72
18,-0.11,1.00,0.10,44.72
18,-0.03,1.01,0.10,46.15
18,-0.03,1.02,0.12,39.93
18,0.05,1.02,0.12,40.64
18,0.01,0.98,0.16,49.25
18,0.01,1.00,0.14,42.27
18,-0.09,1.00,0.18,38.37
18,-0.12,0.98,0.11,38.37
18,-0.06,1.02,0.09,42.67
18,-0.06,1.02,0.12,41.72
18,0.03,1.02,0.12,41.72
18,0.02,0.99,0.16,46.12
18,0.02,0.99,0.15,48.45
18,-0.08,0.99,0.15,48.08
18,-0.13,0.99,0.12,44.17
18,-0.13,1.01,0.09,43.24
18,-0.09,1.01,0.09,42.15
18,0.02,1.02,0.11,42.15
18,0.04,0.99,0.15,41.69
18,0.04,0.99,0.15,45.58
18,-0.04,0.98,0.15,45.58
18,-0.13,0.98,0.12,45.79
18,-0.13,0.98,0.10,45.89
18,-0.11,1.00,0.10,45.89
18,0.00,1.02,0.10,45.67
18,0.00,1.01,0.14,42.26
18,0.05,1.01,0.14,44.32
18,-0.02,0.98,0.16,44.32
18,-0.02,0.99,0.14,43.91
18,-0.12,0.99,0.16,42.34
18,-0.11,1.00,0.10,42.34
18,-0.10,1.01,0.10,42.86
18,-0.03,1.01,0.12,43.37
18,0.05,1.01,0.12,43.37
18,0.01,0.98,0.15,49.72
18,0.01,0.99,0.14,43.42
18,-0.10,0.99,0.14,43.07
18,-0.12,0.99,0.10,45.42
18,-0.12,1.02,0.10,47.78
18,-0.05,1.02,0.10,43.68
18,0.04,1.02,0.12,43.68
18,0.03,0.99,0.16,46.67
18,0.03,0.99,0.15,44.86
18,-0.08,0.99,0.15,44.86
18,-0.13,0.98,0.11,41.62
18,-0.13,0.98,0.09,41.68
18,-0.07,1.01,0.09,41.84
18,0.02,1.02,0.11,42.62
18,0.02,1.06,0.14,44.96
18,0.04,0.99,0.14,45.96
18,-0.05,0.98,0.16,45.96
18,-0.05,0.98,0.12,48.86
18,-0.12,0.98,0.09,43.45
18,-0.10,1.01,0.09,43.45
18,-0.07,1.02,0.10,45.69
18,-0.00,1.02,0.15,47.56
18,0.05,1.00,0.15,47.56
18,-0.03,0.99,0.15,41.18
18,-0.03,0.99,0.13,45.53
18,-0.11,0.99,0.13,45.71
18,-0.12,0.99,0.10,46.50
18,-0.12,1.02,0.09,45.18
18,-0.02,1.02,0.09,44.01
18,0.04,1.00,0.13,44.01
18,0.06,0.98,0.15,41.80
18,-0.01,0.98,0.14,44.37
18,-0.10,0.99,0.14,44.37
18,-0.13,1.00,0.11,44.54
18,-0.13,1.00,0.10,44.45
18,-0.04,1.02,0.10,43.82
18,0.04,1.01,0.12,45.39
18,0.04,1.05,0.16,40.66
18,0.02,0.98,0.16,46.43
18,-0.08,1.00,0.15,46.43
18,-0.08,0.98,0.11,42.29
18,-0.13,0.98,0.09,48.63
18,-0.08,1.02,0.09,48.63
18,-0.08,1.02,0.11,46.88
18,0.04,1.02,0.14,40.91
18,0.04,0.99,0.14,40.91
18,-0.06,0.98,0.15,44.77
18,-0.06,0.99,0.13,43.18
18,-0.12,0.99,0.13,43.50
18,-0.09,1.01,0.09,43.50
18,-0.09,1.03,0.10,47.15
18,0.02,1.03,0.10,46.22
18,0.04,1.00,0.15,46.22
18,0.03,0.99,0.15,47.34
18,-0.03,0.99,0.19,40.49
18,-0.12,0.99,0.12,40.49
18,-0.12,1.00,0.11,41.21
18,-0.12,1.00,0.11,42.59
18,-0.02,1.02,0.11,42.56
18,0.04,1.01,0.14,46.48
18,0.04,1.05,0.16,48.67
18,-0.01,0.98,0.16,45.33
18,-0.11,0.99,0.14,45.33
18,-0.11,0.99,0.10,42.39
18,-0.11,0.99,0.10,43.65
18,-0.04,1.02,0.10,43.65
18,0.04,1.01,0.11,40.76
18,0.04,1.01,0.15,39.89
18,0.01,0.99,0.15,39.89
18,-0.09,0.99,0.15,46.19
18,-0.09,0.99,0.12,40.93
18,-0.12,0.99,0.12,41.01
18,-0.06,1.02,0.10,46.50
18,-0.06,1.02,0.11,44.10
18,0.03,1.02,0.11,44.63
18,0.03,0.99,0.16,44.63
18,0.00,0.99,0.14,44.16
18,-0.06,0.99,0.18,47.20
18,-0.12,0.99,0.11,47.20
18,-0.08,1.01,0.09,43.00
18,-0.08,1.02,0.11,41.68
18,0.01,1.02,0.11,41.97
18,0.05,0.99,0.15,47.45
18,0.05,0.99,0.16,45.70
18,-0.05,0.99,0.16,43.19
18,-0.13,0.99,0.12,43.19
18,-0.16,1.01,0.10,42.03
18,-0.10,1.01,0.09,44.98
18,-0.01,1.02,0.09,44.98
18,0.05,1.00,0.14,45.36
18,0.05,1.00,0.16,40.56
18,-0.01,0.98,0.16,40.56
18,-0.11,0.99,0.13,37.87
18,-0.11,0.99,0.10,40.47
18,-0.12,0.99,0.10,40.59
18,-0.04,1.01,0.10,37.46
18,-0.04,1.01,0.12,42.62
18,0.05,1.01,0.12,41.30
18,0.02,0.99,0.16,41.30
18,0.04,0.99,0.14,39.77
18,-0.09,0.99,0.17,47.54
18,-0.13,0.99,0.11,47.54
18,-0.06,1.02,0.09,48.69
18,-0.06,1.02,0.12,44.91
18,0.03,1.01,0.12,45.22
18,0.03,0.99,0.17,42.08
18,0.03,0.99,0.15,43.52
18,-0.06,0.99,0.15,41.51
18,-0.12,0.98,0.11,41.51
18,-0.09,1.01,0.09,39.16
18,-0.09,1.01,0.11,42.63
18,0.02,1.02,0.11,42.63
18,0.04,0.99,0.15,48.30
18,0.04,0.99,0.15,45.63
18,-0.06,0.99,0.15,45.63
18,-0.11,0.99,0.13,49.88
18,-0.11,0.94,0.09,46.39
18,-0.10,1.00,0.09,46.37
18,0.00,1.02,0.11,46.37
18,0.00,1.00,0.13,45.41
18,0.05,1.00,0.16,39.94
18,-0.03,0.99,0.16,39.94
18,-0.05,0.99,0.14,48.47
18,-0.11,0.99,0.09,37.98
18,-0.11,1.00,0.09,37.98
18,-0.02,1.02,0.10,48.61
18,-0.02,1.01,0.13,40.02
18,0.04,1.01,0.13,39.96
18,0.01,0.98,0.16,43.09
18,0.01,0.99,0.13,47.46
18,-0.10,0.99,0.13,47.01
18,-0.12,0.99,0.11,47.01
18,-0.12,1.01,0.10,44.35
18,-0.06,1.01,0.12,41.15
18,0.04,1.01,0.12,41.15
18,0.02,0.99,0.15,42.12
18,0.02,0.99,0.14,51.94
18,-0.09,0.99,0.14,52.05
18,-0.14,0.99,0.13,47.35
18,-0.14,0.95,0.09,50.38
18,-0.08,1.01,0.09,42.29
18,0.03,1.02,0.11,42.29
18,0.03,0.99,0.14,43.25
18,0.04,0.99,0.15,45.31
18,-0.04,0.98,0.15,45.31
18,-0.02,0.99,0.13,48.31
18,-0.14,0.99,0.09,45.16
18,-0.09,1.01,0.09,45.16
18,-0.00,1.02,0.11,45.25
18,-0.00,1.06,0.13,42.85
18,0.04,1.00,0.13,42.25
18,-0.04,0.98,0.17,44.60
18,-0.04,0.98,0.13,44.05
18,-0.11,0.98,0.13,52.16
18,-0.11,1.01,0.10,52.16
18,-0.08,1.02,0.11,40.44
18,-0.02,1.02,0.06,46.93
18,0.03,1.00,0.13,46.93
18,-0.01,0.98,0.16,46.30
18,-0.01,0.98,0.15,43.71
18,-0.10,0.99,0.15,43.36
18,-0.13,0.99,0.12,44.93
18,-0.13,1.02,0.10,40.85
18,-0.05,1.02,0.10,44.92
18,0.04,1.01,0.11,44.92
18,0.02,0.99,0.15,41.53
18,0.02,0.99,0.14,41.07
18,-0.09,0.99,0.14,41.07
18,-0.13,0.98,0.11,42.99
18,-0.13,0.98,0.08,42.08
18,-0.07,1.02,0.08,42.08
18,0.03,1.02,0.11,45.41
18,0.03,1.06,0.15,43.36
18,0.03,1.00,0.15,43.15
18,-0.07,0.99,0.15,45.50
18,-0.07,0.99,0.12,41.37
18,-0.13,0.99,0.12,40.17
18,-0.10,1.01,0.09,40.17
18,-0.11,1.02,0.10,39.71
18,0.01,1.02,0.15,46.20
18,0.04,1.00,0.15,46.20
18,-0.04,0.99,0.16,40.43
18,-0.04,0.98,0.13,44.65
19,-0.12,0.99,0.10,40.78
19,-0.12,0.96,0.10,45.79
19,-0.03,1.02,0.10,45.33
19,0.04,1.01,0.12,45.33
19,0.02,0.99,0.16,42.23
19,0.02,0.99,0.14,43.00
19,-0.08,0.99,0.14,43.00
19,-0.13,0.99,0.10,43.27
19,-0.13,0.99,0.09,47.72
19,-0.06,1.02,0.09,47.72
19,0.03,1.01,0.11,44.95
19,0.03,1.06,0.16,44.06
19,0.03,0.99,0.16,44.10
19,-0.07,1.00,0.15,40.19
19,-0.07,0.99,0.12,42.36
19,-0.13,0.99,0.12,45.04
19,-0.09,1.01,0.09,45.04
19,-0.10,1.02,0.10,45.23
19,0.02,1.02,0.07,47.85
19,0.03,1.00,0.13,47.85
19,-0.05,0.99,0.16,48.23
19,-0.05,0.98,0.12,42.57
19,-0.12,0.98,0.12,42.87
19,-0.10,1.01,0.10,45.22
19,-0.10,1.02,0.10,40.64
19,-0.00,1.02,0.10,42.09
19,0.05,1.00,0.14,42.09
19,0.05,0.99,0.16,41.49
19,-0.02,0.99,0.13,50.07
19,-0.11,0.99,0.13,50.07
19,-0.11,1.00,0.10,42.19
19,-0.11,1.00,0.09,45.41
19,-0.03,1.02,0.09,45.41
19,0.03,1.01,0.12,42.23
19,0.03,1.05,0.16,42.46
19,0.01,0.99,0.16,42.98
19,-0.09,0.99,0.15,40.63
19,-0.09,0.99,0.12,43.79
19,-0.12,0.99,0.12,44.46
19,-0.06,1.02,0.10,44.46
19,-0.03,1.01,0.12,40.36
19,0.04,1.01,0.16,45.34
19,0.02,0.98,0.16,45.34
19,-0.08,0.98,0.15,45.29
19,-0.08,0.99,0.10,42.04
19,-0.13,0.99,0.10,41.49
19,-0.07,1.01,0.10,42.27
19,-0.07,1.01,0.10,44.66
19,0.03,1.01,0.10,43.81
19,0.03,0.99,0.15,43.81
19,0.02,0.98,0.16,46.09
19,-0.05,0.98,0.18,44.66
19,-0.12,0.99,0.12,44.66
19,-0.10,1.00,0.10,42.23
19,-0.10,1.00,0.10,44.02
19,-0.00,1.02,0.10,44.32
19,0.04,1.01,0.13,42.76
19,0.04,1.05,0.16,44.98
19,-0.03,0.98,0.16,39.92
19,-0.12,0.99,0.13,39.92
19,-0.12,0.99,0.10,45.75
19,-0.11,0.99,0.09,46.40
19,-0.01,1.02,0.09,46.40
19,-0.01,1.02,0.13,43.62
19,0.05,1.02,0.16,44.05
19,-0.01,0.98,0.16,44.05
19,-0.10,0.98,0.14,50.39
19,-0.10,1.00,0.10,42.81
19,-0.13,1.00,0.10,42.36
19,-0.05,1.01,0.09,46.27
19,-0.05,1.01,0.13,48.59
19,0.04,1.01,0.13,43.43
19,0.02,0.98,0.15,43.43
19,0.04,0.99,0.15,44.86
19,-0.09,0.99,0.17,45.96
19,-0.12,0.98,0.11,45.96
19,-0.07,1.02,0.09,44.79
19,-0.07,1.02,0.12,44.41
19,0.02,1.01,0.12,44.41
19,0.03,0.98,0.15,44.61
19,0.03,0.98,0.15,48.10
19,-0.06,0.98,0.15,48.19
19,-0.12,0.99,0.11,44.27
19,-0.12,1.02,0.09,44.74
19,-0.10,1.02,0.11,43.88
19,0.01,1.02,0.11,43.88
19,0.04,1.00,0.14,42.28
19,0.04,1.00,0.15,38.53
19,-0.04,0.99,0.15,38.53
19,-0.12,0.98,0.13,44.29
19,-0.12,0.94,0.09,44.53
19,-0.11,1.00,0.09,44.00
19,-0.01,1.02,0.11,42.43
19,-0.01,1.00,0.14,50.70
19,0.03,1.00,0.14,42.39
19,0.00,0.98,0.17,42.39
19,0.02,0.99,0.14,44.27
19,-0.11,0.99,0.17,46.50
19,-0.13,0.99,0.11,46.50
19,-0.04,1.02,0.10,46.74
19,-0.04,1.02,0.12,42.94
19,0.04,1.02,0.12,42.91
19,0.01,0.98,0.16,46.83
19,0.01,0.99,0.15,42.94
