seconds, accX, accY, accZ, temp
30,-0.03,1.00,0.13,41.27
30,-0.03,1.00,0.13,41.27
30,-0.03,0.98,0.14,47.23
30,-0.03,0.98,0.14,44.91
30,-0.04,1.00,0.14,44.91
30,-0.03,1.00,0.11,41.36
30,-0.03,1.00,0.12,44.63
30,-0.03,1.00,0.12,45.33
30,-0.03,1.02,0.13,46.90
30,-0.03,1.00,0.12,44.24
30,-0.03,1.00,0.12,42.67
30,-0.04,1.00,0.13,42.67
30,-0.04,1.01,0.12,42.83
30,-0.04,1.01,0.12,41.74
30,-0.03,0.99,0.12,41.74
30,-0.04,1.01,0.13,44.97
30,-0.04,1.01,0.11,42.22
30,-0.03,0.99,0.11,41.72
30,-0.04,1.00,0.13,37.80
30,-0.04,1.01,0.13,41.54
30,-0.03,1.01,0.13,38.59
30,-0.02,0.99,0.12,38.59
30,-0.02,1.00,0.12,38.12
30,-0.04,1.00,0.12,41.42
30,-0.03,1.00,0.12,41.42
30,-0.03,0.99,0.12,44.20
30,-0.03,0.99,0.14,43.19
30,-0.04,1.01,0.14,43.19
30,-0.03,0.99,0.12,46.67
30,-0.03,0.94,0.13,43.36
30,-0.04,1.00,0.13,43.39
30,-0.03,1.00,0.11,37.91
30,-0.03,0.99,0.12,44.00
30,-0.03,0.99,0.12,47.87
30,-0.03,1.01,0.12,47.87
30,-0.03,0.99,0.12,41.18
30,-0.03,0.99,0.13,43.81
30,-0.03,1.00,0.13,43.81
30,-0.03,1.01,0.13,45.17
30,-0.03,1.05,0.11,42.76
30,-0.02,0.99,0.11,42.64
30,-0.03,1.00,0.13,38.72
30,-0.03,1.00,0.12,35.88
30,-0.02,1.00,0.12,38.50
30,-0.03,0.99,0.13,38.50
30,-0.03,1.01,0.13,41.44
30,-0.03,1.01,0.17,43.88
30,-0.02,1.01,0.11,43.88
30,-0.03,1.00,0.13,47.61
30,-0.03,1.00,0.12,42.10
30,-0.02,1.01,0.12,41.99
30,-0.02,0.98,0.12,39.64
30,-0.02,0.94,0.13,45.33
30,-0.04,1.01,0.13,44.17
30,-0.03,0.99,0.11,44.17
30,-0.03,1.00,0.12,41.43
30,-0.03,1.00,0.07,41.80
30,-0.04,1.00,0.13,41.80
30,-0.02,0.99,0.14,44.29
30,-0.02,0.99,0.12,39.99
30,-0.03,1.00,0.12,39.99
30,-0.03,1.00,0.11,39.65
30,-0.03,1.05,0.13,49.16
30,-0.03,0.99,0.13,49.27
30,-0.03,1.01,0.13,42.22
30,-0.03,1.00,0.11,39.87
30,-0.03,1.00,0.11,45.35
30,-0.03,1.00,0.12,45.35
30,-0.03,1.00,0.11,39.64
30,-0.03,1.00,0.11,49.65
30,-0.03,0.99,0.11,49.65
30,-0.04,1.00,0.13,41.11
30,-0.04,1.00,0.13,40.79
30,-0.02,1.01,0.13,40.69
30,-0.04,1.00,0.13,41.47
30,-0.04,1.01,0.13,39.41
30,-0.04,1.01,0.13,43.56
30,-0.02,0.99,0.11,43.56
30,-0.02,1.01,0.13,42.60
30,-0.04,1.01,0.13,37.26
30,-0.03,1.00,0.13,37.26
30,-0.02,1.00,0.12,37.18
30,-0.02,1.00,0.13,46.01
30,-0.03,1.00,0.13,46.01
30,-0.03,1.00,0.12,39.73
30,-0.03,1.05,0.12,40.74
30,-0.03,0.99,0.12,40.88
30,-0.04,1.02,0.11,35.39
30,-0.04,0.98,0.12,37.30
30,-0.03,0.98,0.07,35.78
30,-0.04,1.00,0.13,35.78
30,-0.03,1.00,0.12,44.70
30,-0.03,1.00,0.12,38.85
30,-0.03,0.99,0.12,38.85
30,-0.04,1.01,0.12,41.30
30,-0.04,1.05,0.12,40.84
30,-0.01,0.99,0.12,41.16
30,-0.04,1.00,0.14,39.59
30,-0.04,1.01,0.13,38.87
30,-0.04,1.01,0.13,45.27
30,-0.02,0.99,0.12,45.27
30,-0.04,1.00,0.13,44.49
30,-0.04,1.00,0.18,39.89
30,-0.02,1.00,0.11,39.89
30,-0.02,1.00,0.13,42.22
30,-0.02,1.00,0.13,39.03
30,-0.03,1.01,0.13,38.93
30,-0.02,0.99,0.12,43.63
30,-0.02,0.94,0.13,43.45
30,-0.04,1.01,0.13,44.32
30,-0.03,1.00,0.12,44.32
30,-0.03,1.00,0.12,43.54
30,-0.03,1.00,0.07,46.81
30,-0.05,1.01,0.13,46.81
30,-0.03,0.98,0.12,41.63
30,-0.03,0.98,0.13,44.49
30,-0.03,1.00,0.13,44.49
30,-0.03,1.01,0.13,41.99
30,-0.03,1.05,0.12,46.67
30,-0.02,0.99,0.12,46.64
30,-0.04,1.00,0.13,43.50
30,-0.04,0.99,0.12,39.97
30,-0.03,0.99,0.12,41.88
30,-0.02,1.00,0.12,41.88
30,-0.03,1.00,0.12,42.17
30,-0.03,1.00,0.06,46.62
30,-0.03,0.99,0.13,46.62
30,-0.04,1.00,0.13,46.64
30,-0.04,1.00,0.13,44.15
30,-0.04,1.00,0.13,44.08
30,-0.03,0.99,0.12,45.64
30,-0.03,0.94,0.12,39.15
30,-0.04,1.00,0.12,44.19
30,-0.02,1.00,0.11,44.19
30,-0.02,1.00,0.12,39.49
30,-0.03,1.00,0.12,37.99
30,-0.03,1.01,0.12,37.99
30,-0.03,0.99,0.12,50.21
30,-0.03,0.99,0.13,46.28
30,-0.04,1.01,0.13,46.28
30,-0.02,1.00,0.11,40.44
30,-0.02,1.05,0.12,42.94
30,-0.03,0.99,0.12,42.32
30,-0.03,1.01,0.13,39.19
30,-0.03,0.99,0.13,47.65
30,-0.02,0.99,0.13,40.84
30,-0.04,1.00,0.13,40.84
30,-0.03,1.00,0.13,42.57
30,-0.03,1.00,0.12,41.12
30,-0.03,1.00,0.12,41.12
30,-0.04,1.01,0.13,44.04
30,-0.04,1.06,0.12,39.21
30,-0.02,0.99,0.12,39.28
30,-0.02,1.00,0.13,41.63
30,-0.02,1.01,0.12,41.00
30,-0.04,1.01,0.12,48.89
30,-0.02,0.99,0.12,48.89
30,-0.03,1.01,0.12,40.73
30,-0.03,1.01,0.12,41.70
30,-0.03,0.99,0.12,41.70
30,-0.02,1.00,0.12,42.79
30,-0.02,1.00,0.12,43.12
30,-0.04,1.01,0.12,43.55
30,-0.02,0.99,0.13,44.34
30,-0.02,0.94,0.13,41.77
30,-0.04,1.00,0.13,42.12
30,-0.03,1.00,0.12,42.12
30,-0.03,0.99,0.12,41.52
30,-0.03,0.99,0.07,39.23
30,-0.04,1.00,0.13,39.23
30,-0.03,1.01,0.12,43.30
30,-0.03,1.01,0.12,47.05
30,-0.03,1.00,0.12,47.05
30,-0.04,1.01,0.12,46.41
30,-0.04,1.05,0.11,39.92
30,-0.02,0.99,0.11,40.12
30,-0.04,1.01,0.13,43.26
30,-0.04,1.01,0.12,43.66
30,-0.03,1.01,0.12,41.62
30,-0.02,0.99,0.12,41.62
30,-0.04,1.00,0.13,39.86
30,-0.04,1.00,0.17,41.96
30,-0.02,1.00,0.11,41.96
30,-0.03,0.99,0.13,41.62
30,-0.03,0.99,0.12,36.68
30,-0.03,1.01,0.12,36.47
30,-0.03,1.00,0.13,39.61
30,-0.03,0.95,0.13,44.09
30,-0.04,1.01,0.13,42.13
30,-0.03,1.00,0.12,42.13
30,-0.03,1.01,0.12,42.20
30,-0.03,1.01,0.12,42.67
30,-0.03,1.00,0.12,42.67
30,-0.02,0.99,0.13,45.73
30,-0.02,0.99,0.14,37.47
30,-0.03,1.00,0.14,37.47
30,-0.02,1.00,0.13,39.40
30,-0.02,0.99,0.12,40.53
30,-0.02,0.99,0.12,40.20
30,-0.03,1.01,0.13,37.07
30,-0.03,0.99,0.12,44.82
30,-0.03,0.99,0.12,41.51
30,-0.04,1.01,0.13,41.51
30,-0.03,1.00,0.12,43.49
30,-0.03,1.00,0.12,42.71
30,-0.02,0.99,0.12,42.71
30,-0.04,1.00,0.13,42.77
30,-0.04,1.00,0.12,37.40
30,-0.03,1.00,0.12,37.19
30,-0.03,1.00,0.12,48.15
30,-0.03,1.01,0.13,39.17
30,-0.03,1.01,0.13,42.28
30,-0.01,0.99,0.12,42.28
30,-0.04,1.00,0.12,46.97
31,-0.03,1.00,0.13,37.77
31,-0.02,0.99,0.12,46.58
31,-0.02,0.99,0.13,44.19
31,-0.04,1.00,0.13,44.19
31,-0.04,1.00,0.12,43.67
31,-0.04,1.00,0.12,41.21
31,-0.03,1.00,0.12,41.09
31,-0.03,1.01,0.12,42.66
31,-0.03,0.99,0.11,37.00
31,-0.02,0.99,0.11,39.81
31,-0.03,1.00,0.13,39.81
31,-0.03,1.00,0.12,41.55
31,-0.03,1.00,0.13,42.63
31,-0.02,0.99,0.13,42.63
31,-0.03,1.01,0.14,44.45
31,-0.03,1.06,0.12,45.16
31,-0.03,1.00,0.12,44.71
31,-0.03,1.00,0.13,43.15
31,-0.03,1.01,0.13,37.88
31,-0.03,1.01,0.13,37.97
31,-0.02,0.99,0.12,37.97
31,-0.04,1.00,0.13,42.54
31,-0.04,1.00,0.13,42.30
31,-0.04,1.01,0.13,42.30
31,-0.03,1.00,0.12,39.26
31,-0.03,1.00,0.13,41.11
31,-0.04,1.01,0.13,40.91
31,-0.04,0.99,0.12,37.77
31,-0.04,1.00,0.13,42.87
31,-0.03,1.00,0.13,39.23
31,-0.03,1.00,0.12,39.23
31,-0.03,0.99,0.12,40.98
31,-0.02,0.99,0.07,40.13
31,-0.02,1.00,0.13,40.13
31,-0.02,1.01,0.12,46.30
31,-0.02,1.01,0.13,42.92
31,-0.03,0.99,0.13,42.92
31,-0.03,1.01,0.13,39.21
31,-0.03,1.06,0.12,40.83
31,-0.03,1.00,0.12,41.16
31,-0.03,1.01,0.13,41.16
31,-0.03,1.00,0.12,44.23
31,-0.03,1.00,0.12,43.55
31,-0.02,1.00,0.12,43.55
31,-0.04,1.01,0.13,41.52
31,-0.04,1.01,0.18,44.34
9,-0.02,0.99,0.11,42.32
9,-0.01,0.99,0.11,43.45
9,-0.01,0.99,0.13,38.68
9,-0.06,1.06,0.13,38.68
9,-0.03,0.95,0.12,40.08
9,-0.03,0.94,0.13,39.20
9,-0.04,1.01,0.13,39.36
9,-0.02,1.03,0.10,40.14
9,-0.02,0.96,0.12,42.31
9,-0.01,0.96,0.12,43.71
9,-0.08,1.03,0.14,43.71
9,-0.08,0.98,0.11,43.95
9,-0.01,0.98,0.12,40.94
9,-0.02,0.99,0.12,40.94
9,-0.03,1.05,0.12,46.24
9,-0.03,1.05,0.12,43.67
9,-0.01,0.95,0.12,43.19
9,-0.07,1.02,0.15,40.84
9,-0.07,1.00,0.11,40.89
9,-0.01,1.00,0.11,37.64
9,-0.00,0.97,0.11,37.64
9,-0.01,1.05,0.15,40.58
9,-0.07,1.05,0.18,45.47
9,-0.02,0.95,0.11,45.47
9,-0.04,1.00,0.13,38.70
9,-0.04,1.00,0.11,41.19
9,-0.03,1.03,0.11,41.19
9,-0.02,0.95,0.12,42.04
9,-0.02,0.98,0.15,44.21
9,-0.08,1.04,0.15,50.45
9,-0.03,0.97,0.11,50.45
9,-0.03,0.99,0.12,43.09
9,-0.01,0.99,0.12,40.59
9,-0.05,1.05,0.12,40.59
9,-0.03,0.94,0.11,41.62
9,-0.03,0.94,0.13,38.56
9,-0.06,1.04,0.13,38.56
9,-0.01,1.02,0.10,38.58
9,-0.01,1.03,0.11,44.65
9,0.00,0.96,0.11,44.97
9,-0.08,1.05,0.14,48.88
9,-0.08,0.96,0.12,41.96
9,-0.02,0.96,0.12,45.66
9,-0.03,1.00,0.11,45.66
9,-0.03,1.04,0.11,43.25
9,-0.03,1.04,0.11,41.56
9,-0.02,0.95,0.11,41.56
9,-0.08,1.03,0.14,37.04
9,-0.08,1.05,0.12,44.94
9,-0.02,0.99,0.12,44.98
9,-0.01,0.98,0.12,44.19
9,-0.01,1.05,0.14,43.87
9,-0.07,1.05,0.14,44.74
9,-0.03,0.94,0.12,44.74
9,-0.06,1.02,0.14,42.88
9,-0.06,1.02,0.17,39.20
10,-0.02,0.95,0.12,39.03
31,-0.03,1.00,0.13,44.38
31,-0.03,1.00,0.12,44.56
31,-0.04,1.01,0.12,44.36
31,-0.03,1.00,0.13,47.50
31,-0.03,1.06,0.13,40.74
31,-0.04,1.00,0.13,46.80
31,-0.03,1.01,0.13,46.80
31,-0.03,1.00,0.12,45.47
31,-0.03,1.00,0.12,41.20
31,-0.04,1.01,0.12,41.20
31,-0.03,0.99,0.12,38.18
31,-0.03,0.99,0.14,43.16
31,-0.04,1.00,0.14,43.16
31,-0.03,1.01,0.13,39.24
31,-0.03,1.06,0.12,41.03
31,-0.03,1.00,0.12,41.39
31,-0.03,0.99,0.12,42.95
31,-0.03,1.00,0.13,44.06
31,-0.02,1.00,0.13,43.37
31,-0.02,1.00,0.13,43.37
31,-0.03,1.00,0.13,45.64
31,-0.03,1.00,0.11,36.62
31,-0.02,1.00,0.11,36.62
31,-0.03,0.99,0.13,43.97
31,-0.03,1.00,0.12,42.21
31,-0.02,1.00,0.12,41.84
31,-0.02,0.99,0.12,38.70
31,-0.02,1.01,0.14,44.13
31,-0.04,1.01,0.14,42.05
31,-0.02,0.99,0.13,42.05
31,-0.03,1.00,0.13,39.30
31,-0.03,1.00,0.18,44.74
31,-0.03,1.01,0.12,44.74
31,-0.02,0.99,0.11,38.31
31,-0.02,0.99,0.13,42.53
31,-0.04,1.00,0.13,42.43
31,-0.03,1.00,0.12,40.87
31,-0.03,1.05,0.13,43.40
31,-0.02,0.99,0.13,44.98
31,-0.03,1.01,0.12,44.98
31,-0.03,0.99,0.11,48.42
31,-0.02,0.99,0.07,41.01
31,-0.02,1.00,0.13,41.01
31,-0.03,1.00,0.13,39.09
31,-0.03,1.00,0.12,40.86
31,-0.03,0.99,0.12,40.86
31,-0.04,1.01,0.13,43.95
31,-0.04,1.06,0.13,41.36
31,-0.04,0.99,0.13,41.32
31,-0.02,0.99,0.13,40.54
31,-0.02,1.01,0.12,39.44
31,-0.04,1.01,0.12,46.33
31,-0.02,1.00,0.13,46.33
31,-0.04,1.01,0.13,46.10
31,-0.04,1.01,0.18,41.64
31,-0.03,0.99,0.12,41.64
31,-0.03,1.00,0.13,42.52
31,-0.03,1.00,0.12,38.60
31,-0.05,1.00,0.12,38.99
31,-0.01,1.00,0.12,37.42
31,-0.01,0.99,0.13,45.54
31,-0.03,0.99,0.13,45.61
31,-0.03,1.01,0.13,45.61
31,-0.03,1.00,0.12,39.79
31,-0.03,1.00,0.08,40.56
31,-0.04,0.99,0.14,40.56
31,-0.03,1.00,0.13,41.23
31,-0.03,1.00,0.12,43.51
31,-0.02,1.00,0.12,43.51
31,-0.03,1.01,0.12,41.61
31,-0.03,1.06,0.12,49.81
31,-0.02,1.00,0.12,49.34
31,-0.03,1.00,0.12,42.29
31,-0.03,1.00,0.13,40.61
31,-0.03,1.00,0.13,42.76
31,-0.02,0.99,0.12,42.76
31,-0.03,1.02,0.12,44.98
31,-0.03,1.02,0.12,42.94
31,-0.02,1.00,0.12,42.94
31,-0.03,0.99,0.13,43.36
31,-0.03,0.94,0.12,45.29
31,-0.03,1.00,0.12,44.68
31,-0.03,0.99,0.12,39.98
31,-0.03,1.00,0.14,38.51
31,-0.03,1.00,0.14,46.53
31,-0.03,1.00,0.12,46.53
31,-0.03,0.99,0.12,46.47
31,-0.03,0.99,0.07,49.12
31,-0.04,1.01,0.13,49.12
31,-0.03,0.98,0.12,37.33
31,-0.03,0.98,0.13,41.11
31,-0.03,1.00,0.13,40.85
31,-0.03,1.00,0.13,47.12
31,-0.03,1.05,0.13,39.95
31,-0.03,0.98,0.13,38.02
31,-0.03,1.01,0.12,38.02
31,-0.03,1.00,0.11,44.37
31,-0.02,1.00,0.07,42.70
31,-0.03,1.00,0.13,42.70
31,-0.04,1.00,0.12,45.29
31,-0.04,1.00,0.12,44.03
31,-0.02,0.99,0.12,44.03
31,-0.03,1.00,0.13,48.22
31,-0.03,1.00,0.12,41.71
31,-0.02,1.00,0.12,42.05
31,-0.03,0.99,0.12,41.26
31,-0.03,1.01,0.14,41.85
31,-0.04,1.01,0.14,38.93
31,-0.03,0.99,0.12,38.93
31,-0.03,1.01,0.12,46.37
31,-0.03,1.01,0.11,44.40
31,-0.04,1.01,0.11,44.40
31,-0.03,0.99,0.13,41.31
31,-0.03,0.99,0.13,44.60
31,-0.03,1.01,0.13,45.04
31,-0.02,1.00,0.12,43.48
31,-0.02,1.00,0.12,37.93
31,-0.03,1.00,0.12,40.90
31,-0.03,1.01,0.13,40.90
31,-0.02,0.99,0.12,39.26
31,-0.02,0.99,0.11,43.81
31,-0.04,1.00,0.11,43.81
31,-0.02,1.00,0.12,42.43
31,-0.02,1.00,0.12,38.56
31,-0.04,1.00,0.12,38.56
31,-0.04,1.01,0.13,40.49
31,-0.04,1.06,0.13,45.72
31,-0.03,1.00,0.13,45.78
31,-0.04,1.00,0.13,44.99
31,-0.04,1.00,0.13,44.31
32,-0.03,0.99,0.13,43.64
32,-0.03,1.00,0.14,41.16
32,-0.03,1.00,0.13,43.02
32,-0.03,1.01,0.13,43.02
32,-0.03,1.00,0.12,41.86
32,-0.03,1.00,0.12,43.82
32,-0.04,1.02,0.12,43.82
32,-0.03,0.99,0.12,35.43
32,-0.03,1.00,0.13,42.46
32,-0.04,1.00,0.13,42.95
32,-0.03,1.00,0.13,39.81
32,-0.03,0.99,0.12,36.95
32,-0.03,0.99,0.12,43.91
32,-0.04,1.00,0.13,43.91
32,-0.03,1.00,0.13,41.63
32,-0.03,1.00,0.18,42.94
32,-0.03,1.00,0.12,42.94
32,-0.04,1.01,0.11,44.26
32,-0.04,1.01,0.11,44.01
32,-0.03,1.00,0.11,43.95
32,-0.03,1.01,0.13,40.82
32,-0.03,1.00,0.13,41.83
32,-0.03,1.00,0.13,45.02
32,-0.03,0.99,0.12,45.02
32,-0.03,1.00,0.13,38.19
32,-0.03,1.00,0.18,38.60
32,-0.02,0.99,0.12,38.60
32,-0.03,1.00,0.14,40.17
32,-0.03,1.00,0.12,43.03
32,-0.04,1.01,0.12,43.03
32,-0.02,0.99,0.12,40.76
32,-0.02,0.94,0.12,45.00
32,-0.03,1.00,0.12,45.01
32,-0.03,1.00,0.12,42.66
32,-0.03,0.99,0.12,42.99
32,-0.03,0.99,0.12,46.40
32,-0.03,1.00,0.12,46.40
32,-0.03,0.99,0.13,45.49
32,-0.03,0.99,0.12,40.65
32,-0.04,1.00,0.12,40.65
32,-0.04,1.01,0.12,42.95
32,-0.04,1.00,0.12,42.16
32,-0.02,1.00,0.12,41.51
32,-0.03,1.00,0.12,40.73
32,-0.03,1.00,0.13,43.04
32,-0.03,1.00,0.13,40.77
32,-0.03,1.00,0.12,40.77
32,-0.03,1.01,0.13,40.67
32,-0.03,1.01,0.18,39.76
32,-0.03,0.99,0.12,39.76
32,-0.04,1.00,0.13,42.56
32,-0.04,1.00,0.12,46.34
32,-0.03,1.00,0.12,46.34
32,-0.03,0.99,0.13,48.00
32,-0.03,0.94,0.13,52.29
32,-0.04,1.01,0.13,40.24
32,-0.03,1.00,0.14,40.24
32,-0.03,0.99,0.14,47.43
32,-0.03,0.99,0.13,42.94
32,-0.03,1.01,0.13,42.94
32,-0.02,1.00,0.13,42.51
32,-0.02,1.00,0.13,44.73
32,-0.03,1.00,0.13,44.73
32,-0.03,1.01,0.12,43.25
32,-0.03,1.06,0.13,47.13
32,-0.03,0.99,0.13,47.37
32,-0.03,1.01,0.13,41.89
32,-0.03,0.99,0.12,48.80
32,-0.03,0.99,0.12,47.76
32,-0.04,1.01,0.14,47.76
32,-0.03,1.01,0.13,42.26
32,-0.03,1.01,0.13,43.21
32,-0.03,1.00,0.13,43.21
32,-0.04,1.01,0.14,44.27
32,-0.04,1.01,0.13,43.25
32,-0.02,0.99,0.13,43.07
32,-0.03,1.00,0.13,42.29
32,-0.03,1.00,0.12,36.89
32,-0.03,1.00,0.12,41.37
32,-0.02,0.99,0.12,41.37
32,-0.02,1.01,0.13,48.58
32,-0.03,1.01,0.18,39.49
32,-0.03,1.00,0.12,39.49
32,-0.02,0.99,0.13,42.41
32,-0.02,0.99,0.13,42.43
32,-0.03,1.02,0.13,42.43
32,-0.02,1.00,0.11,41.36
32,-0.02,0.99,0.12,39.22
32,-0.04,0.99,0.12,39.24
32,-0.04,1.01,0.12,37.67
32,-0.04,0.98,0.12,39.64
32,-0.02,0.98,0.12,41.05
32,-0.03,1.01,0.12,41.05
32,-0.03,1.00,0.12,44.53
32,-0.03,1.00,0.12,38.08
32,-0.02,1.00,0.12,38.08
32,-0.04,1.00,0.12,44.21
32,-0.04,0.99,0.11,36.56
32,-0.03,0.99,0.11,36.25
32,-0.03,1.01,0.12,40.16
32,-0.03,1.00,0.13,41.28
32,-0.03,1.00,0.13,43.81
32,-0.03,1.00,0.12,43.81
32,-0.03,1.01,0.12,44.29
32,-0.03,1.01,0.12,41.87
32,-0.02,0.99,0.12,41.87
32,-0.04,1.00,0.13,38.91
32,-0.04,1.00,0.13,40.21
32,-0.04,1.01,0.13,40.21
32,-0.03,0.99,0.12,44.81
32,-0.03,0.95,0.13,43.15
32,-0.03,1.01,0.13,43.25
32,-0.03,1.00,0.13,42.47
32,-0.03,0.99,0.13,48.01
32,-0.02,0.99,0.19,41.61
32,-0.03,1.00,0.12,41.61
32,-0.03,0.99,0.12,45.94
32,-0.03,0.99,0.12,43.38
32,-0.04,1.01,0.12,43.38
32,-0.02,1.00,0.12,46.24
32,-0.02,1.06,0.12,45.96
32,-0.03,1.00,0.12,46.00
32,-0.03,1.01,0.12,39.74
32,-0.03,0.99,0.12,46.91
32,-0.02,0.99,0.12,41.10
32,-0.03,1.00,0.11,41.10
32,-0.04,1.01,0.12,46.51
32,-0.04,1.01,0.12,40.33
32,-0.03,1.00,0.12,40.33
32,-0.04,1.01,0.13,41.88
32,-0.04,1.01,0.13,44.71
32,-0.04,1.00,0.13,45.33
32,-0.02,0.99,0.10,45.33
32,-0.02,0.95,0.13,44.58
32,-0.03,1.01,0.13,42.61
32,-0.02,0.99,0.11,42.61
32,-0.02,1.00,0.13,48.13
32,-0.04,1.00,0.13,42.77
32,-0.03,1.00,0.13,42.77
32,-0.02,0.99,0.12,42.45
32,-0.02,0.99,0.15,40.60
32,-0.04,1.01,0.15,40.60
32,-0.02,1.00,0.12,39.50
32,-0.02,1.06,0.12,43.66
32,-0.04,1.00,0.12,43.33
32,-0.03,1.00,0.12,39.42
32,-0.03,0.99,0.11,38.70
32,-0.03,0.99,0.11,43.07
32,-0.04,1.01,0.12,43.07
32,-0.03,0.99,0.12,41.20
32,-0.03,0.99,0.12,44.06
32,-0.03,1.00,0.12,44.06
32,-0.04,1.02,0.12,45.28
32,-0.04,1.02,0.11,43.71
32,-0.03,0.99,0.11,43.30
32,-0.04,0.99,0.13,39.39
32,-0.04,1.00,0.13,40.83
32,-0.04,1.00,0.13,48.21
32,-0.03,1.00,0.12,48.21
32,-0.04,1.00,0.13,40.08
32,-0.04,1.00,0.18,42.99
32,-0.04,1.00,0.12,42.99
32,-0.02,1.00,0.12,40.67
32,-0.02,1.00,0.12,40.29
32,-0.04,1.01,0.12,40.29
32,-0.03,0.99,0.12,43.87
32,-0.03,0.95,0.13,39.92
32,-0.04,1.01,0.13,36.31
32,-0.03,1.00,0.13,36.31
32,-0.03,0.99,0.13,44.74
32,-0.03,0.99,0.19,41.38
32,-0.04,1.00,0.12,41.38
32,-0.02,1.00,0.11,39.57
32,-0.02,1.00,0.12,40.83
32,-0.03,0.99,0.12,40.83
32,-0.04,1.01,0.13,44.13
32,-0.04,1.06,0.11,45.23
32,-0.03,1.00,0.11,45.35
32,-0.04,1.02,0.12,47.70
32,-0.04,1.00,0.13,39.25
32,-0.03,1.00,0.13,43.43
32,-0.03,0.99,0.13,43.43
32,-0.03,1.00,0.13,47.10
32,-0.03,1.00,0.18,41.79
32,-0.03,0.99,0.12,41.79
32,-0.04,0.99,0.13,36.96
32,-0.04,0.99,0.13,43.68
32,-0.03,1.00,0.13,43.57
32,-0.03,0.99,0.13,44.36
32,-0.03,0.94,0.12,40.85
32,-0.04,1.00,0.12,42.33
32,-0.03,0.98,0.12,42.33
32,-0.03,0.99,0.12,41.08
32,-0.03,0.99,0.12,45.89
32,-0.03,1.00,0.12,45.89
32,-0.02,1.00,0.11,46.93
32,-0.02,1.00,0.13,40.35
32,-0.05,1.00,0.13,40.35
32,-0.03,1.01,0.13,41.13
32,-0.03,1.06,0.13,47.11
32,-0.03,1.00,0.13,47.31
32,-0.03,1.01,0.13,44.96
32,-0.03,0.99,0.13,40.73
32,-0.02,0.99,0.13,47.91
32,-0.03,1.00,0.13,47.91
32,-0.03,1.01,0.11,42.69
32,-0.03,1.01,0.12,43.33
32,-0.03,0.99,0.12,43.33
32,-0.03,1.00,0.13,41.69
32,-0.03,0.94,0.11,40.32
32,-0.03,1.00,0.11,40.01
32,-0.04,1.00,0.13,40.01
32,-0.04,1.01,0.13,45.02
32,-0.04,1.01,0.13,38.54
32,-0.02,0.99,0.12,38.54
32,-0.04,1.00,0.13,41.53
32,-0.04,1.00,0.18,38.71
32,-0.03,1.01,0.11,38.71
32,-0.01,1.00,0.12,44.63
32,-0.01,1.00,0.13,40.88
32,-0.03,1.00,0.13,40.88
32,-0.03,1.00,0.12,40.21
32,-0.03,1.00,0.13,40.39
32,-0.03,1.00,0.13,40.48
32,-0.04,1.00,0.11,40.48
32,-0.04,0.99,0.11,41.40
32,-0.03,0.99,0.07,42.72
32,-0.04,1.01,0.13,42.72
32,-0.03,0.99,0.13,48.59
32,-0.03,0.99,0.13,44.29
32,-0.02,1.00,0.13,44.29
32,-0.03,1.01,0.12,40.61
32,-0.03,1.05,0.11,43.93
33,-0.03,1.00,0.12,42.93
33,-0.03,0.94,0.12,44.06
33,-0.03,1.00,0.12,44.15
33,-0.02,0.99,0.12,37.89
33,-0.02,1.00,0.13,38.83
33,-0.04,1.00,0.13,42.85
33,-0.03,1.00,0.12,42.85
33,-0.03,0.98,0.13,41.29
33,-0.03,0.98,0.13,43.83
33,-0.03,1.01,0.13,43.83
33,-0.03,1.00,0.11,43.03
33,-0.03,0.95,0.12,37.36
33,-0.03,1.01,0.12,37.31
33,-0.04,1.01,0.14,34.18
33,-0.04,1.00,0.12,40.66
33,-0.02,1.00,0.12,49.61
33,-0.04,1.01,0.12,49.61
33,-0.02,0.99,0.12,40.47
33,-0.02,0.99,0.06,43.35
33,-0.03,0.99,0.13,43.35
33,-0.03,1.00,0.13,43.94
33,-0.03,1.00,0.12,41.61
33,-0.02,0.99,0.12,42.22
33,-0.04,1.00,0.13,43.79
33,-0.04,1.06,0.12,45.07
33,-0.02,1.00,0.12,47.12
33,-0.03,0.99,0.12,47.12
33,-0.03,1.01,0.11,43.60
33,-0.03,1.01,0.12,47.42
33,-0.02,1.00,0.12,47.42
33,-0.03,1.01,0.13,38.82
33,-0.03,1.01,0.12,43.83
33,-0.03,1.01,0.12,43.83
33,-0.03,1.00,0.12,38.73
33,-0.03,0.94,0.13,41.28
33,-0.04,1.01,0.13,40.89
33,-0.03,1.00,0.12,43.24
33,-0.03,1.00,0.13,43.23
33,-0.03,1.00,0.13,43.93
33,-0.04,1.00,0.12,43.93
33,-0.02,1.00,0.11,44.93
33,-0.02,1.00,0.08,46.68
33,-0.03,1.00,0.14,46.68
33,-0.03,0.99,0.12,36.42
33,-0.03,0.99,0.13,45.83
33,-0.02,0.99,0.13,45.55
33,-0.03,1.00,0.12,40.07
33,-0.03,1.06,0.12,45.52
33,-0.02,1.00,0.12,48.36
33,-0.03,0.99,0.13,48.36
33,-0.03,1.00,0.12,43.61
33,-0.03,1.00,0.07,46.76
33,-0.03,0.99,0.13,46.76
33,-0.04,1.01,0.12,40.78
33,-0.04,1.01,0.13,43.17
33,-0.03,1.00,0.13,43.17
33,-0.03,0.99,0.13,44.64
33,-0.03,0.95,0.12,42.15
33,-0.04,1.01,0.12,41.97
33,-0.02,1.00,0.11,41.97
33,-0.02,1.01,0.12,44.84
33,-0.04,1.01,0.12,45.78
33,-0.03,1.01,0.12,45.78
33,-0.03,0.99,0.12,41.40
33,-0.03,0.99,0.12,38.85
33,-0.03,1.00,0.12,38.85
33,-0.03,1.00,0.12,40.00
33,-0.03,1.00,0.13,41.77
33,-0.04,1.00,0.13,42.19
33,-0.03,1.01,0.13,39.06
33,-0.03,0.98,0.12,38.66
33,-0.03,0.98,0.12,35.52
33,-0.04,1.00,0.11,35.52
33,-0.03,1.00,0.13,39.73
33,-0.03,1.00,0.13,44.80
33,-0.02,1.00,0.13,44.80
33,-0.03,1.01,0.13,42.15
33,-0.03,1.01,0.12,42.43
33,-0.02,1.00,0.12,42.43
33,-0.04,1.00,0.12,41.14
33,-0.04,0.99,0.12,42.67
33,-0.03,0.99,0.12,42.82
33,-0.03,1.01,0.12,44.39
33,-0.03,1.01,0.12,44.66
33,-0.04,1.01,0.12,43.32
33,-0.02,1.00,0.12,43.32
33,-0.03,1.00,0.13,40.05
33,-0.03,1.00,0.13,45.09
33,-0.03,1.01,0.13,45.09
33,-0.02,1.00,0.13,40.07
33,-0.02,0.94,0.14,47.05
33,-0.03,1.00,0.14,47.21
33,-0.03,1.00,0.13,44.08
33,-0.03,0.99,0.11,40.33
33,-0.02,0.99,0.11,44.53
33,-0.04,1.01,0.13,44.53
33,-0.03,0.99,0.12,44.93
33,-0.03,0.99,0.07,42.51
33,-0.04,1.01,0.13,42.51
33,-0.04,1.01,0.12,47.37
33,-0.04,1.01,0.11,39.51
33,-0.03,1.00,0.11,39.37
33,-0.03,1.00,0.13,40.15
33,-0.03,1.06,0.13,41.57
33,-0.03,0.99,0.13,42.25
33,-0.03,1.00,0.12,42.25
33,-0.03,1.00,0.14,47.78
33,-0.04,1.00,0.17,39.33
33,-0.02,1.00,0.11,39.33
33,-0.03,1.00,0.12,42.88
33,-0.03,1.00,0.13,37.87
33,-0.03,1.00,0.13,37.87
33,-0.02,0.99,0.12,41.22
33,-0.02,0.94,0.14,45.45
33,-0.04,1.00,0.14,45.62
33,-0.03,0.99,0.12,44.05
33,-0.03,1.00,0.12,38.30
33,-0.03,1.00,0.12,43.13
33,-0.03,1.01,0.12,43.13
33,-0.02,1.00,0.12,39.60
33,-0.02,1.00,0.07,46.38
33,-0.04,1.00,0.13,46.38
33,-0.03,1.00,0.12,43.44
33,-0.03,0.95,0.13,45.23
33,-0.03,1.01,0.13,45.27
33,-0.03,1.01,0.13,39.79
33,-0.03,0.99,0.12,40.26
33,-0.03,0.99,0.12,44.57
33,-0.04,1.00,0.13,44.57
33,-0.04,1.00,0.12,41.06
33,-0.04,1.00,0.07,41.80
33,-0.02,1.00,0.13,41.80
33,-0.04,0.99,0.14,38.20
33,-0.04,0.99,0.11,46.98
33,-0.02,1.00,0.11,46.98
33,-0.03,1.01,0.12,45.81
33,-0.03,1.01,0.11,42.43
33,-0.02,1.01,0.11,42.85
33,-0.02,1.00,0.12,42.85
33,-0.02,1.00,0.13,36.93
33,-0.04,1.00,0.19,37.91
33,-0.03,0.99,0.12,37.91
33,-0.03,1.00,0.12,40.53
33,-0.03,1.00,0.12,43.27
33,-0.03,1.01,0.12,43.27
33,-0.03,0.99,0.13,45.86
33,-0.03,0.94,0.12,45.64
33,-0.02,1.00,0.12,45.52
33,-0.04,1.01,0.12,40.04
33,-0.04,1.00,0.13,43.09
33,-0.04,1.00,0.13,41.46
33,-0.03,1.01,0.13,41.46
33,-0.02,1.00,0.12,41.81
33,-0.02,1.00,0.07,46.65
33,-0.03,1.00,0.13,46.65
33,-0.04,1.01,0.12,39.13
33,-0.04,1.01,0.11,44.00
33,-0.03,0.99,0.11,43.82
33,-0.03,1.01,0.13,45.39
33,-0.03,1.06,0.13,45.73
33,-0.04,1.00,0.13,42.46
33,-0.02,1.00,0.12,42.46
33,-0.02,1.01,0.12,46.90
33,-0.04,1.01,0.12,41.13
33,-0.02,1.00,0.12,41.13
33,-0.02,1.01,0.13,40.88
33,-0.02,1.01,0.13,37.49
33,-0.03,1.00,0.13,37.49
33,-0.02,0.99,0.12,42.36
33,-0.02,0.95,0.13,41.30
33,-0.03,1.02,0.13,41.35
33,-0.03,1.00,0.11,41.35
33,-0.03,1.00,0.13,43.98
33,-0.03,1.00,0.13,43.93
33,-0.04,1.00,0.12,43.93
33,-0.03,1.00,0.13,45.34
33,-0.03,1.00,0.13,38.58
33,-0.03,1.01,0.13,38.58
33,-0.03,1.01,0.12,43.09
33,-0.03,1.05,0.13,40.68
33,-0.03,0.99,0.13,41.10
33,-0.04,1.01,0.12,36.40
33,-0.04,1.00,0.13,38.86
33,-0.03,1.00,0.13,43.08
33,-0.04,1.00,0.13,43.08
33,-0.03,1.01,0.13,42.49
33,-0.03,1.01,0.13,46.15
33,-0.03,0.99,0.13,46.15
33,-0.03,1.01,0.13,42.84
33,-0.03,1.01,0.12,36.41
33,-0.03,1.00,0.12,36.41
33,-0.03,1.00,0.12,44.05
33,-0.03,0.95,0.12,44.67
33,-0.03,1.01,0.12,44.13
33,-0.02,1.00,0.12,44.13
33,-0.02,1.00,0.12,40.53
33,-0.03,1.00,0.12,39.18
33,-0.03,1.01,0.12,39.18
33,-0.03,0.99,0.12,42.39
33,-0.03,0.99,0.13,43.12
33,-0.03,1.00,0.13,43.12
33,-0.02,1.00,0.12,43.14
33,-0.02,1.06,0.12,42.12
33,-0.02,1.00,0.12,41.89
33,-0.03,1.01,0.13,40.32
33,-0.03,0.99,0.11,41.31
33,-0.03,0.99,0.11,39.42
33,-0.03,0.99,0.12,39.42
33,-0.02,1.00,0.12,42.48
33,-0.02,1.00,0.12,47.44
33,-0.03,0.99,0.12,47.44
33,-0.03,1.01,0.13,41.81
33,-0.03,1.01,0.13,38.98
33,-0.02,1.00,0.13,38.97
33,-0.05,1.01,0.13,39.75
33,-0.05,1.00,0.11,39.61
33,-0.03,1.00,0.11,40.84
33,-0.03,0.99,0.13,40.84
33,-0.03,1.00,0.13,40.21
33,-0.04,1.00,0.18,41.10
33,-0.03,1.00,0.12,41.10
33,-0.03,0.99,0.12,43.51
33,-0.03,0.99,0.13,45.40
33,-0.04,1.00,0.13,45.40
33,-0.02,0.98,0.13,39.31
33,-0.02,1.00,0.12,42.86
33,-0.03,1.00,0.12,42.85
33,-0.03,1.00,0.12,38.94
33,-0.03,0.99,0.11,50.79
33,-0.02,0.99,0.11,41.69
33,-0.03,1.01,0.12,41.69
33,-0.02,1.01,0.12,48.11
33,-0.02,1.01,0.12,39.76
34,-0.03,1.01,0.13,50.07
34,-0.03,1.01,0.12,42.07
34,-0.03,0.99,0.12,42.07
34,-0.04,1.00,0.13,39.47
34,-0.04,1.06,0.13,43.57
34,-0.03,1.00,0.13,43.43
34,-0.03,0.99,0.12,43.43
34,-0.03,1.00,0.13,46.35
34,-0.04,1.00,0.13,38.43
34,-0.03,1.00,0.13,38.43
34,-0.01,0.99,0.14,39.05
34,-0.01,0.99,0.14,38.00
34,-0.07,1.00,0.14,38.00
34,-0.01,1.00,0.11,41.57
34,-0.01,1.00,0.12,40.62
34,-0.04,1.00,0.12,40.45
34,-0.03,1.00,0.13,38.89
34,-0.03,1.00,0.13,45.12
34,-0.03,1.00,0.13,45.39
34,-0.00,1.01,0.12,45.39
34,-0.03,0.99,0.11,43.72
34,-0.03,0.99,0.08,44.15
34,-0.04,1.00,0.14,44.15
34,-0.03,1.00,0.13,38.75
34,-0.03,1.00,0.13,44.70
34,-0.02,0.99,0.13,44.70
34,-0.05,1.01,0.12,39.70
34,-0.05,1.00,0.12,41.88
34,-0.04,1.00,0.12,40.83
34,-0.05,0.99,0.13,40.83
34,-0.05,1.00,0.12,37.61
34,-0.05,1.00,0.12,40.47
34,-0.02,0.99,0.12,40.47
34,-0.05,1.00,0.14,40.47
34,-0.05,1.00,0.12,48.15
34,-0.02,1.00,0.12,48.15
34,-0.02,0.99,0.12,39.44
1,-0.13,1.08,0.12,45.31
1,-0.03,0.89,0.12,44.05
1,0.03,0.95,0.11,44.05
1,0.04,1.16,0.10,40.38
1,-0.02,1.16,0.07,45.75
1,-0.02,0.87,0.13,45.75
1,-0.17,1.11,0.17,38.76
1,-0.17,1.11,0.07,41.32
1,0.03,0.92,0.07,40.97
1,0.03,0.99,0.11,40.18
1,0.03,0.94,0.13,38.49
1,-0.09,1.13,0.13,35.28
1,-0.07,0.89,0.13,35.28
1,-0.11,0.99,0.14,39.96
1,-0.05,0.99,0.14,42.56
1,0.03,1.08,0.08,42.56
1,0.03,0.91,0.11,44.48
1,0.03,0.91,0.16,42.34
1,-0.15,1.15,0.16,42.34
1,-0.01,0.87,0.11,41.91
1,-0.01,0.87,0.12,43.63
1,0.01,0.99,0.12,43.68
1,-0.01,1.14,0.11,42.89
1,-0.01,0.89,0.14,40.57
1,-0.05,0.89,0.14,34.39
1,-0.13,1.04,0.17,34.39
1,-0.16,0.98,0.07,40.49
1,0.03,0.98,0.11,43.29
1,0.05,0.95,0.11,43.29
1,-0.10,1.15,0.13,41.43
1,-0.10,1.13,0.13,41.27
1,-0.05,0.88,0.13,40.82
1,-0.03,0.99,0.11,45.52
1,-0.03,1.12,0.08,51.50
1,0.02,1.12,0.08,39.25
1,0.02,0.89,0.11,39.25
1,0.02,1.12,0.17,46.82
1,-0.17,1.12,0.15,42.57
1,0.00,0.88,0.08,42.57
1,0.03,0.99,0.12,44.58
1,0.03,0.99,0.11,42.89
1,-0.04,1.12,0.11,42.89
1,-0.06,0.90,0.14,42.76
1,-0.06,0.88,0.15,44.98
1,-0.10,1.01,0.15,41.99
1,0.02,1.04,0.08,41.99
1,0.02,0.91,0.12,44.81
1,0.05,0.91,0.11,51.25
1,-0.13,1.16,0.17,51.25
1,-0.15,0.84,0.12,42.65
1,-0.03,0.84,0.12,40.25
1,-0.02,1.01,0.12,40.25
1,0.02,1.09,0.08,37.91
1,0.02,1.10,0.13,41.18
1,-0.03,0.91,0.13,40.90
1,-0.16,1.06,0.17,42.46
1,-0.16,0.94,0.08,38.61
1,0.01,0.94,0.08,37.71
1,0.06,0.96,0.11,37.71
1,0.12,1.16,0.12,39.40
1,-0.07,1.16,0.08,44.42
1,-0.05,0.87,0.14,44.42
1,-0.08,1.02,0.13,45.77
1,-0.08,1.02,0.09,46.53
1,0.03,1.06,0.09,46.25
1,0.03,0.93,0.11,39.20
1,0.03,0.88,0.18,38.19
1,-0.15,1.13,0.18,37.86
1,-0.03,0.87,0.12,37.86
1,-0.06,1.00,0.13,39.40
1,0.01,1.00,0.15,42.75
1,0.00,1.12,0.09,42.75
1,-0.04,0.92,0.15,42.59
1,-0.04,0.92,0.15,40.29
1,-0.15,1.04,0.15,40.29
1,0.01,0.99,0.10,43.71
1,0.01,1.00,0.09,45.28
1,0.07,0.93,0.09,45.25
1,-0.11,1.18,0.14,43.69
1,-0.11,0.85,0.13,42.75
1,-0.03,0.85,0.13,47.44
1,-0.07,1.04,0.14,47.44
1,-0.08,1.05,0.08,40.94
1,0.05,1.05,0.11,40.26
1,0.00,0.94,0.11,40.26
1,-0.15,1.09,0.17,41.76
1,-0.15,1.10,0.10,41.11
1,-0.02,0.91,0.10,41.35
1,0.03,0.97,0.12,37.44
1,0.03,1.15,0.10,45.40
1,-0.04,1.15,0.10,39.74
1,-0.04,0.87,0.14,39.74
1,-0.01,1.06,0.15,38.23
1,-0.13,1.06,0.15,40.83
1,0.04,0.99,0.08,40.83
1,0.04,0.95,0.11,41.65
1,0.04,0.95,0.16,39.30
1,-0.12,1.15,0.16,39.17
1,-0.05,0.87,0.11,37.60
1,-0.05,0.83,0.13,40.07
1,-0.04,1.01,0.13,39.82
1,0.02,1.08,0.06,39.82
1,0.02,0.92,0.14,45.56
1,-0.01,0.92,0.15,46.36
1,-0.14,1.07,0.15,46.36
1,-0.13,0.94,0.11,42.99
1,-0.01,0.94,0.10,44.21
1,0.05,0.96,0.10,44.21
1,-0.07,1.16,0.13,43.78
1,-0.07,1.17,0.14,42.85
1,-0.04,0.85,0.14,42.59
1,-0.12,1.05,0.16,42.59
1,-0.12,1.01,0.07,41.17
1,0.05,1.01,0.07,39.53
1,0.02,0.95,0.12,39.53
1,0.06,1.11,0.17,42.22
1,-0.13,1.11,0.17,36.92
1,-0.04,0.89,0.11,36.92
1,-0.00,0.97,0.12,40.41
1,-0.00,0.97,0.08,38.53
1,0.01,1.13,0.08,38.85
1,-0.01,0.89,0.13,39.63
1,-0.01,0.90,0.16,40.16
1,-0.15,1.09,0.16,43.34
1,0.01,0.93,0.09,43.34
1,0.01,0.97,0.11,41.12
1,0.04,0.97,0.08,40.85
1,-0.07,1.14,0.14,40.85
1,-0.05,0.87,0.12,43.41
1,-0.05,0.87,0.15,43.75
1,-0.08,1.02,0.15,43.75
1,0.04,1.05,0.07,44.71
1,0.04,1.06,0.12,45.50
1,0.02,0.94,0.12,46.06
1,-0.14,1.11,0.16,42.93
1,-0.14,0.90,0.10,45.46
1,-0.04,0.90,0.10,42.05
1,0.02,0.98,0.11,42.05
1,0.04,1.14,0.10,43.22
1,-0.02,1.14,0.07,41.65
1,-0.02,0.88,0.13,41.65
1,-0.15,1.08,0.17,52.74
1,-0.15,1.08,0.08,44.05
1,0.03,0.96,0.08,43.82
1,0.04,0.96,0.11,45.39
1,0.04,1.13,0.14,44.81
1,-0.10,1.13,0.14,34.93
1,-0.06,0.88,0.13,34.93
1,-0.04,0.99,0.13,46.29
1,-0.04,0.99,0.15,45.39
1,0.02,1.08,0.08,45.39
1,0.02,0.91,0.12,41.16
1,0.02,0.91,0.17,37.21
1,-0.16,1.11,0.17,37.21
1,-0.01,0.89,0.11,38.68
1,-0.01,0.92,0.11,43.91
1,0.02,0.99,0.11,41.96
1,-0.03,1.13,0.10,41.96
1,-0.03,0.89,0.14,42.19
1,-0.06,0.89,0.16,40.44
1,-0.11,1.03,0.16,40.44
1,-0.11,1.00,0.07,40.35
1,0.02,1.00,0.12,45.88
1,0.03,0.95,0.12,45.88
1,-0.12,1.13,0.14,45.08
1,-0.12,1.18,0.12,37.88
1,-0.04,0.87,0.12,37.71
1,-0.02,0.99,0.12,40.06
1,-0.02,1.10,0.08,44.27
1,0.01,1.10,0.08,44.85
1,-0.01,0.90,0.13,44.85
1,-0.03,1.10,0.18,40.01
1,-0.16,1.10,0.15,46.18
1,0.01,0.92,0.08,46.18
1,0.04,0.98,0.11,44.73
1,0.04,0.98,0.11,40.47
1,-0.05,1.13,0.11,39.90
1,-0.05,0.89,0.13,39.90
1,-0.05,0.89,0.15,42.09
1,-0.10,1.01,0.15,40.81
1,0.04,1.05,0.08,40.81
1,0.04,0.92,0.11,41.51
1,0.04,0.92,0.10,38.93
1,-0.14,1.14,0.16,38.93
1,-0.02,0.87,0.12,40.17
1,-0.02,0.87,0.12,48.22
1,-0.01,1.00,0.12,48.22
1,0.01,1.11,0.09,36.63
1,0.01,1.09,0.13,36.26
1,-0.03,0.91,0.13,35.99
1,-0.14,1.04,0.17,42.25
1,-0.14,0.97,0.09,42.48
1,0.02,0.97,0.09,45.53
1,0.05,0.95,0.11,45.53
1,0.04,1.15,0.13,40.84
1,-0.09,1.15,0.19,46.51
1,-0.04,0.86,0.12,46.51
1,-0.07,1.02,0.12,42.08
1,-0.07,1.00,0.09,45.88
1,0.02,1.07,0.09,46.11
1,0.01,0.93,0.12,40.63
1,0.01,1.11,0.17,44.98
1,-0.16,1.11,0.17,42.27
1,-0.01,0.90,0.11,42.27
1,-0.05,0.99,0.12,41.54
1,0.01,0.99,0.10,37.12
1,-0.02,1.12,0.10,37.12
1,-0.04,0.89,0.14,49.73
1,-0.04,0.89,0.15,45.35
1,-0.13,1.04,0.15,44.60
1,0.02,1.00,0.10,46.95
1,0.02,1.00,0.09,42.52
1,0.05,0.94,0.09,38.73
1,-0.12,1.14,0.14,38.73
1,-0.12,0.86,0.12,41.41
1,-0.04,0.86,0.07,46.39
1,-0.05,1.02,0.13,46.39
1,-0.04,1.07,0.08,47.07
1,0.02,1.07,0.12,46.11
1,-0.01,0.93,0.12,46.11
1,-0.14,1.07,0.17,40.57
1,-0.14,1.11,0.10,40.23
1,-0.02,0.92,0.10,40.16
1,0.04,0.96,0.11,44.86
1,0.04,1.14,0.11,49.30
2,-0.04,0.88,0.11,48.54
2,-0.04,0.94,0.12,43.79
2,-0.01,1.00,0.12,44.56
2,0.00,1.09,0.08,44.56
2,0.00,0.91,0.12,40.31
2,-0.02,0.91,0.10,38.02
2,-0.14,1.07,0.16,38.02
2,-0.19,0.95,0.10,43.04
2,0.00,0.95,0.10,47.01
2,0.05,0.96,0.10,47.01
2,-0.07,1.15,0.13,44.18
2,-0.07,1.18,0.12,44.35
2,-0.04,0.87,0.12,44.09
2,-0.09,1.04,0.15,40.17
2,-0.09,1.03,0.07,39.36
2,0.03,1.03,0.07,43.96
2,0.02,0.94,0.11,43.96
2,0.05,1.10,0.16,43.55
2,-0.14,1.10,0.17,38.74
2,-0.03,0.91,0.11,38.74
2,0.01,0.97,0.12,43.03
2,0.01,0.97,0.09,39.98
2,-0.02,1.13,0.09,40.27
2,-0.03,0.89,0.13,43.40
2,-0.03,0.88,0.17,37.97
2,-0.14,1.07,0.17,49.07
2,0.02,0.96,0.09,49.07
2,0.02,0.97,0.10,42.74
2,0.04,0.97,0.08,45.31
2,-0.09,1.13,0.14,45.31
2,-0.11,0.88,0.12,37.84
2,-0.05,0.88,0.14,46.13
2,-0.06,1.00,0.14,46.13
2,0.02,1.07,0.07,44.80
2,0.02,1.11,0.11,44.55
2,0.01,0.93,0.11,44.41
2,-0.15,1.09,0.17,42.06
2,-0.15,0.91,0.10,40.99
2,-0.01,0.91,0.10,44.29
2,0.02,0.97,0.10,44.29
2,0.03,1.13,0.11,40.88
2,-0.03,1.13,0.12,41.48
2,-0.03,0.88,0.12,41.48
2,-0.13,1.05,0.15,45.73
2,-0.13,1.05,0.08,36.17
2,0.03,0.99,0.08,35.97
2,0.03,0.96,0.12,43.80
2,0.03,1.11,0.15,36.71
2,-0.11,1.11,0.15,40.33
2,-0.05,0.89,0.12,40.33
2,-0.03,0.99,0.13,44.32
2,-0.03,0.99,0.14,41.27
2,0.01,1.10,0.08,41.27
2,-0.00,0.91,0.12,42.37
2,-0.00,0.91,0.16,41.33
2,-0.15,1.09,0.16,41.33
2,0.01,0.92,0.11,41.06
2,0.01,0.92,0.10,42.79
2,0.03,0.98,0.10,40.16
2,-0.04,1.12,0.11,40.16
2,-0.04,0.89,0.12,41.84
2,-0.04,0.89,0.09,48.96
2,-0.10,1.02,0.15,48.96
2,-0.10,1.02,0.07,43.92
2,0.03,1.02,0.11,42.15
2,0.03,0.93,0.11,42.15
2,-0.12,1.12,0.16,41.26
2,-0.12,1.07,0.12,45.69
2,-0.03,0.89,0.12,45.89
2,-0.01,0.99,0.12,46.67
2,-0.01,1.11,0.09,41.64
2,-0.01,1.11,0.09,40.27
2,-0.02,0.90,0.13,40.27
2,-0.02,1.06,0.18,42.18
2,-0.14,1.06,0.15,42.60
2,0.01,0.95,0.09,42.60
2,0.04,0.97,0.11,42.83
2,0.04,0.97,0.12,40.64
2,-0.07,1.12,0.12,40.32
2,-0.05,0.89,0.13,41.89
2,-0.05,0.89,0.13,45.06
2,-0.07,1.02,0.13,44.48
2,0.02,1.06,0.09,44.48
2,0.02,0.93,0.11,48.13
2,0.03,0.93,0.11,41.22
2,-0.15,1.11,0.17,41.22
2,-0.14,0.90,0.11,39.11
2,-0.02,0.90,0.11,42.29
2,0.01,0.99,0.11,42.29
2,-0.01,1.11,0.11,40.73
2,-0.01,1.09,0.12,43.43
2,-0.04,0.90,0.12,43.41
2,-0.13,1.04,0.16,38.71
2,-0.13,0.99,0.08,46.13
2,0.02,0.99,0.08,44.01
2,0.04,0.95,0.10,44.01
2,0.02,1.13,0.15,42.27
2,-0.10,1.13,0.18,40.16
2,-0.03,0.88,0.12,40.16
2,-0.05,1.00,0.13,39.59
2,-0.05,1.01,0.07,42.03
2,0.02,1.07,0.07,42.17
2,0.01,0.93,0.11,43.74
2,0.01,1.10,0.17,45.14
2,-0.14,1.10,0.17,38.24
2,-0.00,0.93,0.09,38.24
2,-0.05,0.98,0.12,45.24
2,0.02,0.98,0.11,40.38
2,-0.03,1.11,0.11,40.38
2,-0.05,0.90,0.13,46.07
2,-0.05,0.90,0.15,40.73
2,-0.11,1.03,0.15,40.73
2,0.03,1.01,0.08,38.74
2,0.03,1.01,0.12,42.98
2,0.04,0.94,0.12,42.77
2,-0.12,1.13,0.14,39.63
2,-0.12,0.88,0.11,37.15
2,-0.03,0.88,0.07,40.65
2,-0.03,1.01,0.13,40.65
2,-0.04,1.08,0.09,40.28
2,0.02,1.08,0.11,45.80
2,-0.01,0.92,0.11,45.80
2,-0.14,1.07,0.17,44.72
2,-0.14,1.07,0.10,44.72
2,-0.00,0.95,0.10,45.30
2,0.04,0.96,0.11,44.52
2,0.04,1.13,0.14,46.43
2,-0.07,1.13,0.14,49.70
2,-0.05,0.88,0.13,49.70
2,-0.03,1.03,0.14,38.39
2,-0.09,1.03,0.14,39.99
2,0.02,1.03,0.08,39.99
2,0.02,0.94,0.11,40.12
2,0.02,0.94,0.16,38.26
2,-0.13,1.11,0.16,38.02
2,-0.03,0.89,0.11,41.94
2,-0.03,0.93,0.13,45.73
2,-0.01,0.99,0.13,43.60
2,-0.01,1.11,0.10,43.60
2,-0.01,0.91,0.12,45.57
2,-0.02,0.91,0.10,41.61
2,-0.14,1.06,0.16,41.61
2,-0.18,0.97,0.10,42.44
2,0.01,0.97,0.10,48.13
2,0.04,0.96,0.10,48.13
2,-0.08,1.13,0.14,47.26
2,-0.08,1.13,0.12,42.07
2,-0.05,0.88,0.12,41.64
2,-0.07,1.02,0.13,44.78
2,-0.07,1.05,0.09,43.12
2,0.02,1.05,0.09,40.58
2,0.02,0.94,0.11,40.58
2,0.05,1.07,0.18,42.34
2,-0.14,1.07,0.17,42.30
2,-0.03,0.92,0.10,42.30
2,0.02,0.98,0.11,39.31
2,0.02,1.00,0.12,38.70
2,-0.03,1.12,0.12,38.71
2,-0.03,0.89,0.12,37.93
2,-0.03,1.05,0.16,45.32
2,-0.12,1.05,0.16,41.51
2,0.02,0.98,0.09,41.51
2,0.03,0.96,0.11,44.81
2,0.03,0.96,0.07,48.41
2,-0.10,1.11,0.14,48.41
2,-0.05,0.89,0.11,45.52
2,-0.05,0.89,0.13,45.37
2,-0.04,1.00,0.13,45.37
2,0.02,1.08,0.08,48.55
2,0.02,1.11,0.13,47.47
2,0.00,0.93,0.13,38.76
2,-0.15,1.09,0.16,38.76
2,-0.15,0.93,0.10,39.48
2,-0.01,0.93,0.11,48.80
2,0.02,0.97,0.11,48.80
2,0.02,1.13,0.12,41.67
2,-0.05,1.13,0.13,41.74
2,-0.04,0.89,0.13,41.74
2,-0.10,1.04,0.16,43.52
2,-0.10,1.00,0.08,42.85
2,0.02,1.00,0.08,42.81
2,0.03,0.96,0.11,45.16
2,0.03,1.11,0.16,42.18
2,-0.12,1.11,0.16,41.57
2,-0.04,0.90,0.12,41.57
2,-0.02,0.98,0.12,39.65
2,-0.02,0.98,0.09,40.10
2,-0.01,1.10,0.09,40.10
2,-0.02,0.91,0.11,47.19
2,-0.02,0.91,0.16,42.65
2,-0.14,1.08,0.16,42.44
2,0.00,0.94,0.09,44.79
2,0.00,0.97,0.11,36.92
2,0.04,0.97,0.11,44.18
2,-0.06,1.11,0.13,44.18
2,-0.06,0.89,0.13,46.80
2,-0.04,0.89,0.14,43.10
2,-0.08,1.02,0.14,43.10
2,-0.10,1.05,0.07,48.56
2,0.02,1.05,0.11,42.78
2,0.02,0.93,0.11,42.78
2,-0.13,1.11,0.15,38.25
2,-0.13,1.09,0.11,49.64
2,-0.03,0.90,0.11,49.48
2,0.00,0.99,0.11,40.08
2,0.00,1.12,0.11,42.71
2,-0.02,1.12,0.11,43.83
2,-0.03,0.90,0.13,43.83
2,-0.00,1.06,0.17,42.55
2,-0.13,1.06,0.15,41.43
2,0.01,0.98,0.09,41.43
2,0.03,0.96,0.11,42.80
2,0.03,0.99,0.13,39.63
2,-0.09,1.12,0.13,39.50
2,-0.05,0.89,0.12,52.03
2,-0.05,1.01,0.14,46.00
2,-0.06,1.01,0.14,41.45
2,0.01,1.07,0.09,41.45
2,0.01,0.93,0.12,36.10
2,0.01,0.93,0.11,41.42
2,-0.14,1.09,0.17,41.42
2,-0.01,0.91,0.10,44.09
2,-0.01,0.91,0.11,44.13
2,0.02,0.98,0.11,44.13
2,-0.03,1.11,0.12,48.05
2,-0.03,1.09,0.13,44.97
2,-0.04,0.91,0.13,40.51
2,-0.11,1.03,0.16,40.51
2,-0.11,1.01,0.08,36.61
2,0.02,1.01,0.10,41.28
2,0.03,0.95,0.10,41.28
2,0.01,1.12,0.14,36.82
2,-0.11,1.12,0.12,42.83
3,-0.01,0.98,0.11,46.06
3,0.03,0.98,0.12,44.98
3,-0.05,1.12,0.12,44.98
3,-0.04,0.90,0.11,46.40
3,-0.04,0.90,0.14,45.68
3,-0.10,1.02,0.14,45.68
3,0.02,1.04,0.09,44.71
3,0.02,1.01,0.10,45.27
3,0.03,0.94,0.10,44.79
3,-0.12,1.09,0.16,45.57
3,-0.12,0.90,0.11,43.94
3,-0.03,0.90,0.11,40.45
3,-0.01,1.00,0.13,40.45
3,-0.00,1.09,0.10,40.60
3,-0.00,1.09,0.12,44.52
3,-0.02,0.92,0.12,44.52
3,-0.13,1.06,0.16,39.49
3,-0.13,1.03,0.10,41.99
3,0.00,0.97,0.10,42.23
3,0.04,0.96,0.10,43.79
3,0.04,1.13,0.13,41.30
3,-0.07,1.13,0.13,40.78
3,-0.04,0.89,0.13,40.78
3,-0.01,1.02,0.14,42.94
3,-0.08,1.02,0.15,38.65
3,0.03,1.04,0.09,38.65
3,0.01,0.94,0.11,41.07
3,0.01,0.94,0.17,41.03
3,-0.14,1.09,0.17,41.03
3,-0.03,0.92,0.11,39.93
3,-0.03,0.92,0.12,41.84
3,0.00,0.98,0.12,48.52
3,-0.02,1.10,0.10,48.52
3,-0.02,0.90,0.13,35.44
3,-0.03,0.90,0.16,38.81
3,-0.12,1.05,0.16,38.81
3,-0.10,0.98,0.09,43.18
3,0.02,0.98,0.11,38.09
3,0.03,0.96,0.11,38.09
3,-0.09,1.12,0.14,46.91
3,-0.09,1.08,0.11,38.53
3,-0.04,0.90,0.11,38.51
3,-0.05,1.02,0.13,40.86
3,-0.05,1.07,0.09,46.28
3,0.01,1.07,0.09,45.61
3,0.01,0.93,0.11,45.61
3,0.06,1.08,0.16,43.33
3,-0.13,1.08,0.18,39.04
3,-0.01,0.93,0.11,39.04
3,0.02,0.97,0.11,45.06
3,0.02,0.97,0.10,42.80
3,-0.04,1.11,0.10,42.37
3,-0.03,0.90,0.12,43.16
3,-0.03,0.91,0.14,47.31
3,-0.11,1.04,0.14,43.22
3,0.02,1.00,0.08,43.22
3,0.02,0.95,0.10,39.02
3,0.03,0.95,0.08,40.12
3,-0.11,1.10,0.15,40.12
3,-0.10,0.90,0.11,41.25
3,-0.04,0.90,0.14,44.56
3,-0.03,0.99,0.14,44.56
3,-0.00,1.07,0.08,47.74
3,-0.00,1.11,0.12,46.78
3,-0.00,0.92,0.12,46.60
3,-0.14,1.07,0.16,47.39
3,-0.14,0.95,0.10,42.99
3,-0.00,0.95,0.10,42.95
3,0.02,0.97,0.11,42.95
3,0.00,1.12,0.13,42.71
3,-0.06,1.12,0.19,42.07
3,-0.04,0.90,0.12,42.07
3,-0.08,1.03,0.14,42.67
3,-0.08,1.03,0.08,41.12
3,0.02,1.03,0.08,41.12
3,0.02,0.94,0.11,40.34
3,0.02,1.10,0.15,52.50
3,-0.13,1.10,0.15,43.74
3,-0.04,0.90,0.11,43.74
3,-0.02,0.99,0.12,39.51
3,-0.02,0.99,0.10,47.90
3,-0.01,1.10,0.10,47.90
3,-0.03,0.91,0.12,44.35
3,-0.03,0.91,0.17,41.37
3,-0.13,1.06,0.17,41.37
3,0.01,0.97,0.09,37.89
3,0.01,0.96,0.11,38.70
3,0.04,0.96,0.11,40.20
3,-0.08,1.11,0.13,40.20
3,-0.08,0.89,0.12,42.63
3,-0.03,0.89,0.08,40.75
3,-0.07,1.01,0.14,40.75
3,-0.11,1.05,0.08,43.94
3,0.01,1.05,0.11,49.62
3,0.01,0.93,0.11,49.62
3,-0.13,1.10,0.16,42.55
3,-0.13,1.11,0.11,37.80
3,-0.02,0.92,0.11,37.58
3,0.01,0.99,0.12,48.54
3,0.01,1.10,0.12,46.02
3,-0.03,1.10,0.12,41.74
3,-0.03,0.90,0.12,41.74
3,-0.05,1.04,0.15,35.76
3,-0.11,1.04,0.14,39.60
3,0.02,0.99,0.08,39.60
3,0.03,0.96,0.10,34.73
3,0.03,0.96,0.14,41.15
3,-0.10,1.11,0.14,41.10
3,-0.05,0.89,0.12,42.67
3,-0.05,1.00,0.14,47.48
3,-0.04,1.00,0.14,42.59
3,0.01,1.06,0.09,42.59
3,0.01,0.92,0.13,43.63
3,0.01,0.92,0.16,40.36
3,-0.13,1.07,0.16,40.36
3,-0.01,0.94,0.10,44.80
3,-0.01,0.94,0.11,42.52
3,0.02,0.98,0.11,42.52
3,-0.05,1.11,0.12,47.48
3,-0.05,1.09,0.12,44.40
3,-0.04,0.90,0.12,42.28
3,-0.10,1.03,0.14,42.28
3,-0.10,1.02,0.08,43.17
3,0.01,1.02,0.10,43.67
3,0.03,0.95,0.10,43.67
3,0.01,1.10,0.16,44.00
3,-0.11,1.10,0.12,43.60
3,-0.04,0.90,0.12,43.60
3,-0.01,1.00,0.12,39.98
3,-0.01,1.03,0.09,42.25
3,-0.00,1.09,0.09,42.75
3,-0.01,0.92,0.12,42.75
3,-0.01,1.06,0.16,46.95
3,-0.13,1.06,0.16,42.93
3,0.00,0.96,0.09,42.93
3,0.03,0.97,0.11,41.24
3,0.03,0.97,0.07,37.46
3,-0.07,1.11,0.13,37.46
3,-0.03,0.89,0.12,39.41
3,-0.03,0.89,0.15,39.40
3,-0.08,1.02,0.15,39.62
3,0.01,1.04,0.08,42.75
3,0.01,1.00,0.12,41.97
3,0.02,0.94,0.12,45.47
3,-0.12,1.10,0.15,45.47
3,-0.12,0.92,0.11,40.46
3,-0.02,0.92,0.07,42.59
3,0.00,1.00,0.13,42.59
3,-0.02,1.10,0.10,39.77
3,-0.02,1.10,0.12,44.73
3,-0.03,0.91,0.12,44.73
3,-0.13,1.05,0.16,42.28
3,-0.13,1.04,0.09,40.76
3,0.01,0.98,0.09,41.31
3,0.04,0.95,0.11,41.31
3,0.04,1.10,0.13,37.81
3,-0.08,1.10,0.13,41.57
3,-0.04,0.89,0.13,41.57
3,-0.06,1.01,0.13,39.16
3,-0.06,1.01,0.14,45.67
3,0.01,1.06,0.08,45.67
3,0.01,0.94,0.11,39.07
3,0.01,0.95,0.16,41.96
3,-0.13,1.08,0.16,41.54
3,-0.02,0.94,0.11,42.32
3,-0.02,0.98,0.11,49.79
3,0.01,0.98,0.11,41.96
3,-0.03,1.10,0.12,41.96
3,-0.04,0.90,0.13,42.67
3,-0.04,0.90,0.15,40.74
3,-0.11,1.04,0.15,40.74
3,0.01,1.00,0.09,45.62
3,0.01,1.00,0.11,42.79
3,0.03,0.94,0.11,42.79
3,-0.10,1.10,0.14,44.11
3,-0.10,1.09,0.12,38.80
3,-0.04,0.90,0.12,39.30
3,-0.03,1.01,0.12,39.30
3,-0.03,1.07,0.09,39.81
3,0.00,1.07,0.12,43.02
3,-0.01,0.92,0.12,43.02
3,-0.01,1.07,0.15,42.55
3,-0.14,1.07,0.10,36.12
3,-0.01,0.95,0.10,36.12
3,0.02,0.97,0.11,41.21
3,0.02,0.99,0.13,38.35
3,-0.06,1.12,0.13,38.77
3,-0.04,0.89,0.12,39.56
3,-0.04,1.03,0.14,44.25
3,-0.10,1.03,0.14,43.28
3,0.01,1.02,0.09,43.28
3,0.03,0.95,0.10,46.81
3,0.03,0.95,0.09,40.31
3,-0.11,1.10,0.16,40.31
3,-0.04,0.91,0.12,41.97
3,-0.04,0.91,0.13,44.88
3,-0.01,0.99,0.13,45.05
3,-0.01,1.09,0.09,41.13
3,-0.01,1.11,0.12,42.30
3,-0.02,0.92,0.12,42.48
3,-0.13,1.05,0.16,42.48
3,-0.13,0.96,0.10,45.09
3,0.00,0.96,0.11,42.39
3,0.02,0.96,0.11,42.39
3,0.06,1.11,0.13,45.64
3,-0.07,1.11,0.13,40.51
3,-0.05,0.89,0.13,40.51
3,-0.07,1.01,0.14,38.48
3,-0.07,1.05,0.09,39.93
3,0.02,1.05,0.09,40.50
3,0.01,0.94,0.11,43.64
3,0.01,1.09,0.15,41.03
3,-0.12,1.09,0.15,43.26
3,-0.03,0.92,0.11,43.26
3,-0.06,0.99,0.12,42.28
3,0.00,0.99,0.10,38.85
3,-0.02,1.10,0.10,38.85
3,-0.03,0.90,0.11,40.99
3,-0.03,0.90,0.15,36.81
3,-0.11,1.05,0.15,37.27
3,0.00,0.99,0.09,38.84
3,0.00,0.96,0.12,39.24
3,0.03,0.96,0.12,38.71
3,-0.09,1.10,0.13,38.71
3,-0.11,0.90,0.12,40.03
3,-0.04,0.90,0.07,42.99
3,-0.05,1.00,0.14,42.99
3,0.00,1.06,0.09,41.12
3,0.00,1.06,0.11,40.95
3,-0.01,0.94,0.11,40.95
3,-0.13,1.08,0.16,43.48
3,-0.13,1.06,0.10,46.72
3,-0.02,0.94,0.10,42.34
4,0.02,0.95,0.14,44.42
4,-0.11,1.10,0.14,44.40
4,-0.04,0.91,0.13,48.31
4,-0.04,0.88,0.12,36.66
4,-0.03,1.00,0.12,39.50
4,-0.00,1.08,0.10,39.50
4,-0.00,0.92,0.12,40.33
4,-0.01,0.92,0.09,42.92
4,-0.12,1.07,0.15,42.92
4,-0.07,0.96,0.10,42.04
4,-0.01,0.96,0.11,42.01
4,0.02,0.98,0.11,42.01
4,-0.05,1.11,0.12,38.72
4,-0.05,1.10,0.13,37.43
4,-0.04,0.91,0.13,37.05
4,-0.09,1.02,0.14,42.53
4,-0.09,1.03,0.09,40.21
4,0.01,1.03,0.09,40.53
4,0.02,0.94,0.11,40.53
4,0.01,1.10,0.14,40.00
4,-0.12,1.10,0.17,40.43
4,-0.03,0.91,0.10,40.43
4,-0.01,0.99,0.12,43.73
4,-0.01,0.99,0.10,38.69
4,-0.01,1.08,0.10,38.70
4,-0.02,0.91,0.12,41.84
4,-0.02,0.92,0.16,41.78
4,-0.11,1.05,0.16,47.78
4,0.01,0.98,0.09,47.78
4,0.01,0.96,0.12,46.13
4,0.03,0.96,0.07,46.16
4,-0.08,1.10,0.14,46.16
4,-0.05,0.90,0.13,39.43
4,-0.05,0.90,0.14,37.31
4,-0.06,1.01,0.14,37.31
4,0.01,1.05,0.08,39.16
4,0.01,1.06,0.12,48.19
4,0.01,0.93,0.12,48.19
4,-0.12,1.08,0.15,38.00
4,-0.12,0.93,0.11,47.36
4,-0.02,0.93,0.11,44.42
4,0.01,0.98,0.12,44.42
4,0.04,1.10,0.10,45.16
4,-0.03,1.10,0.12,43.29
4,-0.03,0.90,0.12,43.29
4,-0.11,1.04,0.15,44.42
4,-0.11,1.04,0.09,41.44
4,0.01,0.99,0.09,41.25
4,0.03,0.96,0.10,42.03
4,0.03,1.10,0.13,41.03
4,-0.09,1.10,0.13,40.59
4,-0.03,0.91,0.12,40.59
4,-0.04,1.01,0.12,46.68
4,-0.04,1.01,0.10,36.97
4,0.00,1.06,0.10,36.97
4,-0.01,0.92,0.11,43.15
4,-0.01,0.92,0.15,39.69
4,-0.12,1.07,0.15,39.69
4,-0.01,0.95,0.10,41.28
4,-0.01,0.98,0.12,40.21
4,0.02,0.98,0.12,38.52
4,-0.06,1.10,0.13,38.52
4,-0.06,0.91,0.13,39.75
4,-0.04,0.91,0.15,40.86
4,-0.09,1.03,0.15,40.86
4,-0.12,1.01,0.08,46.60
4,0.00,1.01,0.12,41.34
4,0.02,0.95,0.12,41.34
4,-0.11,1.09,0.15,41.02
4,-0.11,1.11,0.11,42.56
4,-0.03,0.92,0.11,42.43
4,-0.02,1.00,0.12,40.08
4,-0.02,1.08,0.09,48.13
4,0.00,1.08,0.09,45.05
4,-0.01,0.92,0.11,45.05
4,-0.06,1.05,0.15,37.63
4,-0.12,1.05,0.16,46.62
4,0.01,0.97,0.10,46.62
4,0.03,0.97,0.10,41.43
4,0.03,0.97,0.13,41.64
4,-0.07,1.10,0.13,42.09
4,-0.04,0.91,0.13,41.31
4,-0.04,0.90,0.14,43.47
4,-0.08,1.03,0.14,48.62
4,0.02,1.04,0.09,48.62
4,0.02,0.94,0.11,43.86
4,0.01,0.94,0.10,38.27
4,-0.11,1.09,0.16,38.27
4,-0.10,0.92,0.11,46.17
4,-0.04,0.92,0.11,45.40
4,0.00,0.99,0.11,45.40
4,-0.02,1.09,0.10,44.25
4,-0.02,1.10,0.13,46.47
4,-0.03,0.91,0.13,46.59
4,-0.11,1.05,0.16,38.75
4,-0.11,0.98,0.09,42.81
4,0.00,0.98,0.09,37.00
4,0.03,0.97,0.10,37.00
4,0.04,1.09,0.14,37.92
4,-0.09,1.09,0.13,43.41
4,-0.04,0.90,0.13,43.41
4,-0.05,1.01,0.13,43.99
4,-0.05,1.05,0.09,41.14
4,0.00,1.05,0.09,41.37
4,-0.01,0.93,0.11,44.51
4,-0.01,1.08,0.16,42.73
4,-0.13,1.08,0.16,44.10
4,-0.02,0.93,0.10,44.10
4,-0.06,0.99,0.11,42.54
4,0.00,0.99,0.12,49.00
4,-0.03,1.09,0.12,49.00
4,-0.02,0.92,0.11,49.12
4,-0.02,0.92,0.15,41.25
4,-0.10,1.03,0.15,41.25
4,0.01,1.00,0.09,44.17
4,0.01,1.01,0.11,40.29
4,0.02,0.95,0.11,42.60
4,-0.10,1.10,0.15,42.60
4,-0.10,0.91,0.11,36.89
4,-0.03,0.91,0.07,45.04
4,-0.04,1.00,0.13,45.04
4,-0.00,1.07,0.11,44.79
4,-0.00,1.07,0.13,35.74
4,-0.01,0.92,0.13,35.74
4,-0.12,1.07,0.14,43.58
4,-0.12,1.07,0.11,47.08
4,-0.02,0.95,0.11,47.32
4,0.02,0.98,0.11,43.40
4,0.02,1.09,0.13,39.33
4,-0.05,1.09,0.13,40.59
4,-0.04,0.91,0.13,40.59
4,-0.02,1.03,0.14,44.04
4,-0.08,1.03,0.15,44.65
4,0.00,1.02,0.09,44.65
4,0.01,0.95,0.11,44.67
4,0.01,0.95,0.15,44.50
4,-0.11,1.10,0.15,44.36
4,-0.03,0.92,0.11,42.01
4,-0.03,0.93,0.13,37.32
4,-0.02,1.00,0.13,41.73
4,-0.02,1.08,0.10,41.73
4,-0.02,0.92,0.12,40.45
4,-0.01,0.92,0.10,41.08
4,-0.11,1.05,0.16,41.08
4,-0.00,0.97,0.10,41.76
4,-0.00,0.97,0.11,43.60
4,0.03,0.98,0.11,43.60
4,-0.07,1.10,0.13,41.40
4,-0.07,1.10,0.12,43.08
4,-0.04,0.91,0.12,43.25
4,-0.07,1.02,0.14,39.33
4,-0.07,1.04,0.09,44.56
4,0.01,1.04,0.09,43.31
4,0.00,0.94,0.11,43.31
4,0.01,1.07,0.14,48.73
4,-0.11,1.07,0.17,46.92
4,-0.02,0.93,0.11,46.92
4,-0.01,0.98,0.12,41.26
4,-0.01,0.98,0.11,48.38
4,-0.02,1.09,0.11,47.94
4,-0.02,0.91,0.13,39.32
4,-0.02,1.04,0.15,38.85
4,-0.11,1.04,0.15,46.06
4,0.01,0.99,0.10,46.06
4,0.01,0.96,0.12,39.27
4,0.01,0.96,0.08,40.56
4,-0.09,1.10,0.14,40.56
4,-0.03,0.90,0.12,46.19
4,-0.03,0.90,0.14,43.19
4,-0.05,1.01,0.14,43.19
4,0.00,1.05,0.10,42.03
4,0.00,1.06,0.11,50.38
4,-0.00,0.94,0.11,50.19
4,-0.13,1.08,0.16,36.09
4,-0.13,0.94,0.10,44.65
4,-0.01,0.94,0.12,44.52
4,0.01,0.98,0.12,44.52
4,0.02,1.08,0.13,42.16
4,-0.05,1.08,0.12,41.11
4,-0.03,0.91,0.12,41.11
4,-0.10,1.04,0.15,41.95
4,-0.10,1.00,0.09,45.63
4,0.01,1.00,0.09,45.67
4,0.02,0.95,0.10,48.02
4,0.02,1.09,0.15,43.89
4,-0.10,1.09,0.15,42.38
4,-0.03,0.92,0.11,42.38
4,-0.02,1.00,0.13,46.13
4,-0.02,1.00,0.15,40.60
4,-0.00,1.08,0.09,40.60
4,-0.00,0.93,0.12,45.22
4,-0.00,0.93,0.15,42.90
4,-0.11,1.06,0.15,42.40
4,-0.01,0.96,0.10,40.83
4,-0.01,0.97,0.12,41.41
4,0.02,0.97,0.12,42.53
4,-0.06,1.10,0.13,42.53
4,-0.06,0.91,0.12,45.15
4,-0.03,0.91,0.07,40.19
4,-0.08,1.03,0.13,40.19
4,-0.11,1.02,0.09,47.82
4,0.01,1.02,0.10,38.87
4,0.02,0.95,0.10,38.87
4,-0.11,1.08,0.14,40.22
4,-0.11,1.11,0.11,47.42
4,-0.03,0.92,0.11,47.69
4,-0.02,0.99,0.12,48.47
4,-0.02,1.08,0.10,47.46
4,-0.01,1.08,0.10,42.28
4,-0.01,0.92,0.12,42.28
4,-0.04,1.04,0.15,41.44
4,-0.11,1.04,0.15,40.37
4,-0.01,0.98,0.09,40.37
4,0.02,0.97,0.10,46.97
4,0.02,0.97,0.14,41.47
4,-0.07,1.10,0.14,41.88
4,-0.04,0.91,0.12,40.32
4,-0.04,1.02,0.14,39.45
4,-0.06,1.02,0.14,42.78
4,0.01,1.05,0.10,42.78
4,0.01,0.95,0.12,40.89
4,0.01,0.95,0.09,41.78
4,-0.11,1.08,0.16,41.78
4,-0.03,0.93,0.11,43.45
4,-0.03,0.93,0.12,49.91
4,0.00,1.00,0.12,49.91
4,-0.03,1.09,0.10,43.38
4,-0.03,1.10,0.12,44.24
4,-0.03,0.91,0.12,44.58
4,-0.10,1.04,0.15,44.58
4,-0.10,0.99,0.09,40.97
4,0.01,0.99,0.12,40.13
4,0.02,0.96,0.12,40.13
5,-0.11,1.07,0.14,38.76
5,-0.02,0.94,0.10,38.76
5,-0.05,0.99,0.11,43.10
5,0.01,0.99,0.12,40.97
5,-0.05,1.09,0.12,40.97
5,-0.03,0.91,0.12,42.22
5,-0.03,0.91,0.15,38.02
5,-0.09,1.03,0.15,38.02
5,0.02,1.01,0.09,38.14
5,0.02,1.01,0.12,44.37
5,0.02,0.95,0.12,44.47
5,-0.10,1.09,0.16,38.99
5,-0.10,0.92,0.11,44.41
5,-0.03,0.92,0.07,41.55
5,-0.02,1.00,0.13,41.55
5,-0.01,1.08,0.10,39.20
5,-0.01,1.08,0.13,43.66
5,-0.01,0.93,0.13,43.66
5,-0.12,1.05,0.15,40.56
5,-0.12,1.03,0.10,41.81
5,-0.00,0.97,0.10,41.55
5,0.01,0.97,0.12,37.63
5,0.01,1.09,0.12,38.98
5,-0.07,1.09,0.12,36.82
5,-0.04,0.91,0.12,36.82
5,-0.01,1.02,0.14,42.23
5,-0.07,1.02,0.15,45.22
5,0.00,1.04,0.09,45.22
5,0.01,0.95,0.11,43.20
5,0.01,0.95,0.14,39.10
5,-0.11,1.08,0.14,39.45
5,-0.03,0.93,0.11,39.45
5,-0.03,0.93,0.13,40.13
5,-0.01,0.99,0.13,40.40
5,-0.02,1.08,0.10,40.40
5,-0.02,0.92,0.11,40.35
5,-0.03,0.92,0.09,39.46
5,-0.12,1.04,0.15,39.46
5,-0.12,0.98,0.09,43.26
5,0.01,0.98,0.11,42.24
5,0.03,0.97,0.11,42.24
5,-0.08,1.09,0.13,41.52
5,-0.08,1.10,0.11,47.14
5,-0.04,0.91,0.11,47.29
5,-0.05,1.02,0.13,39.46
5,-0.05,1.06,0.09,43.12
5,0.00,1.06,0.09,39.87
5,0.00,0.95,0.12,39.87
5,0.00,1.07,0.16,39.86
5,-0.12,1.07,0.16,42.86
5,-0.02,0.94,0.10,42.86
5,0.00,0.98,0.12,40.81
5,0.00,0.98,0.12,44.39
5,-0.05,1.08,0.12,44.35
5,-0.03,0.91,0.12,38.87
5,-0.03,0.91,0.15,46.80
5,-0.10,1.03,0.15,43.22
5,-0.00,1.00,0.09,43.22
5,-0.00,0.95,0.11,38.26
5,0.02,0.95,0.08,43.95
5,-0.09,1.08,0.15,43.95
5,-0.03,0.92,0.12,47.85
5,-0.03,0.92,0.13,39.91
5,-0.04,1.01,0.13,39.91
5,0.00,1.07,0.10,43.30
5,0.00,1.12,0.12,45.54
5,-0.01,0.94,0.12,45.88
5,-0.11,1.05,0.16,41.96
5,-0.11,0.96,0.10,40.25
5,-0.01,0.96,0.10,40.47
5,0.02,0.98,0.12,40.47
5,0.01,1.08,0.13,44.08
5,-0.05,1.08,0.11,39.01
5,-0.04,0.92,0.11,39.01
5,-0.09,1.02,0.14,41.68
5,-0.09,1.02,0.10,44.90
5,0.01,1.02,0.10,45.20
5,0.02,0.94,0.12,38.15
5,0.02,1.09,0.15,43.04
5,-0.10,1.09,0.15,51.75
5,-0.03,0.93,0.10,51.75
5,-0.02,1.00,0.13,40.76
5,-0.02,1.00,0.16,39.70
5,-0.02,1.08,0.10,39.70
5,-0.02,0.92,0.11,46.00
5,-0.02,0.92,0.15,37.06
5,-0.11,1.05,0.15,36.89
5,-0.00,0.98,0.10,43.94
5,-0.00,0.98,0.11,39.39
5,0.02,0.98,0.11,39.85
5,-0.07,1.09,0.13,39.85
5,-0.07,0.92,0.12,46.84
5,-0.04,0.92,0.07,36.06
5,-0.07,1.02,0.13,36.06
5,-0.11,1.04,0.09,46.70
5,0.01,1.04,0.11,42.09
5,0.01,0.95,0.11,42.09
5,-0.11,1.08,0.15,39.99
5,-0.11,1.06,0.11,45.45
5,-0.03,0.94,0.11,45.65
5,-0.00,0.99,0.12,37.82
5,-0.00,1.08,0.12,38.99
5,-0.02,1.08,0.12,41.84
5,-0.02,0.92,0.11,41.84
5,-0.03,1.04,0.15,49.31
5,-0.09,1.04,0.15,43.22
5,-0.00,0.99,0.09,43.22
5,0.02,0.97,0.11,35.74
5,0.02,0.97,0.14,42.80
5,-0.09,1.09,0.14,42.49
5,-0.03,0.91,0.11,47.97
5,-0.03,0.88,0.13,44.44
5,-0.04,1.00,0.13,43.24
5,-0.00,1.05,0.09,43.24
5,-0.00,0.94,0.12,39.05
5,-0.01,0.94,0.08,40.03
5,-0.12,1.06,0.14,40.03
5,-0.01,0.96,0.11,41.00
5,-0.01,0.96,0.11,38.87
5,0.01,0.98,0.11,38.87
5,-0.04,1.09,0.11,38.78
5,-0.04,1.11,0.12,44.65
5,-0.04,0.92,0.12,45.16
5,-0.09,1.02,0.15,45.94
5,-0.09,1.00,0.09,40.58
5,0.00,1.00,0.09,44.35
5,0.02,0.96,0.11,44.35
5,0.03,1.08,0.14,40.53
5,-0.09,1.08,0.12,43.04
5,-0.04,0.93,0.12,43.04
5,-0.03,1.00,0.13,44.98
5,-0.03,1.01,0.09,42.19
5,-0.01,1.07,0.09,41.87
5,-0.01,0.93,0.12,46.57
5,-0.01,1.05,0.14,43.01
5,-0.11,1.05,0.14,38.47
5,-0.01,0.97,0.09,38.47
5,-0.05,0.99,0.11,41.71
5,0.02,0.99,0.07,48.10
5,-0.05,1.09,0.13,48.10
5,-0.03,0.92,0.12,39.33
5,-0.03,0.92,0.15,50.29
5,-0.07,1.02,0.15,50.63
5,0.01,1.02,0.09,37.31
5,0.01,1.02,0.11,38.19
5,0.01,0.96,0.11,43.88
5,-0.11,1.07,0.16,43.88
5,-0.11,0.92,0.10,38.43
5,-0.02,0.92,0.12,41.02
5,-0.01,1.00,0.12,41.02
5,-0.03,1.07,0.12,43.34
5,-0.03,1.07,0.13,44.92
5,-0.02,0.93,0.13,44.92
5,-0.11,1.04,0.16,47.03
5,-0.11,1.04,0.10,41.69
5,-0.00,0.98,0.10,41.99
5,0.02,0.97,0.11,43.56
5,0.02,1.08,0.13,39.80
5,-0.07,1.08,0.13,45.13
5,-0.04,0.91,0.12,45.13
5,-0.06,1.02,0.13,43.24
5,-0.06,1.02,0.16,39.71
5,0.00,1.05,0.09,39.71
5,-0.00,0.95,0.11,43.69
5,-0.00,0.95,0.15,40.07
5,-0.12,1.06,0.15,40.49
5,-0.02,0.95,0.12,38.93
5,-0.02,0.99,0.11,36.79
5,0.00,0.99,0.11,47.90
5,-0.03,1.09,0.11,47.90
5,-0.03,0.93,0.12,48.81
5,-0.02,0.93,0.09,43.19
5,-0.09,1.04,0.15,43.19
5,-0.00,0.99,0.10,43.89
5,-0.00,0.99,0.10,48.58
5,0.02,0.96,0.10,48.58
5,-0.09,1.09,0.14,38.92
5,-0.09,1.11,0.12,42.54
5,-0.03,0.93,0.12,42.68
5,-0.04,1.01,0.13,41.12
5,-0.04,1.05,0.09,43.48
5,-0.00,1.05,0.09,43.49
5,0.00,0.93,0.11,43.49
5,0.02,1.05,0.15,42.31
5,-0.11,1.05,0.16,39.92
5,-0.01,0.94,0.10,39.92
5,0.01,0.99,0.10,40.75
5,0.01,0.96,0.12,39.07
5,-0.05,1.08,0.12,39.05
5,-0.03,0.92,0.14,41.40
5,-0.03,1.03,0.14,40.75
5,-0.08,1.03,0.14,39.37
5,0.00,1.01,0.09,39.37
5,0.02,0.96,0.11,45.84
5,0.02,0.96,0.09,37.77
5,-0.10,1.08,0.15,37.77
5,-0.03,0.93,0.11,39.57
5,-0.03,0.93,0.13,45.29
5,-0.03,1.00,0.13,45.19
5,-0.01,1.06,0.09,45.19
5,-0.01,1.05,0.12,44.24
5,-0.01,0.92,0.12,46.50
5,-0.11,1.04,0.15,46.50
5,-0.11,0.97,0.10,46.35
5,-0.01,0.97,0.11,46.29
5,0.00,0.99,0.11,46.29
5,0.00,1.08,0.13,42.20
5,-0.06,1.08,0.11,37.90
5,-0.03,0.93,0.11,37.90
5,-0.06,1.02,0.15,38.94
5,-0.06,1.03,0.10,43.30
5,0.01,1.03,0.10,43.26
5,0.00,0.94,0.12,43.26
5,0.00,1.08,0.16,43.23
5,-0.11,1.08,0.16,46.22
5,-0.03,0.93,0.12,46.22
5,-0.01,0.99,0.12,39.85
5,-0.01,0.99,0.11,40.43
5,-0.03,1.07,0.11,40.43
5,-0.02,0.93,0.11,41.24
5,-0.02,0.93,0.15,40.16
5,-0.11,1.04,0.15,40.56
5,-0.01,0.99,0.09,44.48
5,-0.01,0.97,0.11,46.66
5,0.02,0.97,0.11,43.02
5,-0.08,1.08,0.15,43.02
5,-0.09,0.92,0.13,45.79
5,-0.03,0.92,0.19,41.17
5,-0.05,1.02,0.12,41.17
5,-0.00,1.05,0.10,40.57
5,-0.00,1.05,0.12,42.52
5,-0.00,0.94,0.12,42.99
5,-0.11,1.06,0.15,44.56
6,0.01,1.01,0.09,37.75
6,0.01,0.96,0.12,43.71
6,0.01,0.96,0.14,39.83
6,-0.09,1.09,0.14,39.12
6,-0.03,0.92,0.12,42.25
6,-0.03,1.00,0.14,36.50
6,-0.03,1.00,0.14,41.29
6,-0.01,1.05,0.10,41.29
6,-0.01,0.93,0.12,45.37
6,-0.01,0.93,0.09,36.16
6,-0.11,1.05,0.15,36.16
6,-0.01,0.97,0.11,37.15
6,-0.01,0.97,0.11,45.00
6,0.01,0.99,0.11,45.18
6,-0.05,1.08,0.13,42.04
6,-0.05,1.10,0.11,42.24
6,-0.03,0.91,0.11,34.60
6,-0.08,1.03,0.14,34.60
6,-0.08,1.02,0.08,39.79
6,0.00,1.02,0.11,44.56
6,0.01,0.95,0.11,44.56
6,0.02,1.08,0.15,45.80
6,-0.10,1.08,0.11,40.24
6,-0.03,0.93,0.11,40.24
6,-0.02,1.01,0.12,41.36
6,-0.02,1.01,0.12,42.11
6,-0.01,1.07,0.12,41.98
6,-0.02,0.93,0.12,38.85
6,-0.02,1.03,0.15,43.58
6,-0.12,1.03,0.15,44.92
6,-0.00,0.97,0.10,44.92
6,-0.05,0.97,0.12,46.31
6,0.01,0.97,0.12,49.62
6,-0.07,1.08,0.12,49.62
6,-0.04,0.92,0.12,44.82
6,-0.04,0.89,0.13,37.62
6,-0.06,1.02,0.13,38.25
6,0.00,1.04,0.10,42.95
6,0.00,0.95,0.12,46.25
6,-0.00,0.95,0.12,47.55
6,-0.11,1.07,0.16,47.55
6,-0.09,0.95,0.11,45.17
6,-0.03,0.95,0.12,43.12
6,-0.01,0.99,0.12,43.12
6,-0.04,1.07,0.12,47.44
6,-0.04,1.07,0.11,47.34
6,-0.01,0.93,0.11,47.34
6,-0.09,1.04,0.15,40.92
6,-0.09,1.06,0.10,43.45
6,0.00,0.99,0.10,43.60
6,0.02,0.96,0.10,45.17
6,0.02,1.08,0.14,47.18
6,-0.07,1.08,0.18,41.42
6,-0.03,0.92,0.11,41.42
6,-0.05,1.01,0.12,42.91
6,-0.05,1.01,0.09,42.51
6,-0.00,1.05,0.09,42.51
6,-0.01,0.94,0.12,36.63
6,-0.01,0.88,0.16,44.94
6,-0.10,1.06,0.16,44.68
6,-0.02,0.95,0.10,45.47
6,-0.02,0.99,0.12,43.82
6,0.01,0.99,0.12,38.33
6,-0.05,1.08,0.13,38.33
6,-0.02,0.92,0.12,42.73
6,-0.02,0.92,0.08,43.35
6,-0.09,1.03,0.15,43.35
6,0.00,1.01,0.10,39.12
6,0.00,1.01,0.11,48.53
6,0.02,0.96,0.11,49.10
6,-0.10,1.07,0.14,38.92
6,-0.10,1.12,0.12,41.82
6,-0.03,0.93,0.12,39.92
6,-0.04,1.00,0.13,39.92
6,-0.04,1.06,0.10,39.08
6,-0.02,1.06,0.12,47.71
6,-0.01,0.93,0.12,47.71
6,-0.05,1.06,0.15,45.29
6,-0.11,1.06,0.10,40.71
6,-0.00,0.97,0.10,40.71
6,0.01,0.98,0.11,48.76
6,0.01,0.96,0.12,46.31
6,-0.06,1.08,0.12,46.33
6,-0.04,0.93,0.12,42.41
6,-0.04,1.02,0.15,46.32
6,-0.07,1.02,0.15,43.90
6,0.00,1.02,0.09,43.90
6,0.01,0.95,0.11,42.40
6,0.01,0.95,0.09,44.47
6,-0.10,1.06,0.15,44.47
6,-0.03,0.94,0.12,39.49
6,-0.03,0.94,0.12,40.09
6,-0.01,1.00,0.12,40.13
6,-0.02,1.07,0.12,44.05
6,-0.02,1.11,0.12,39.71
6,-0.02,0.92,0.12,39.25
6,-0.10,1.04,0.14,39.25
6,-0.12,0.98,0.09,43.02
6,0.00,0.98,0.12,43.53
6,0.01,0.98,0.12,43.53
6,-0.07,1.08,0.13,44.48
6,-0.07,1.08,0.11,42.00
6,-0.03,0.94,0.11,42.00
6,-0.05,1.01,0.14,49.87
6,-0.05,1.04,0.10,43.18
6,0.01,1.04,0.10,43.29
6,-0.00,0.95,0.11,40.16
6,-0.00,1.06,0.15,37.02
6,-0.10,1.06,0.15,41.91
6,-0.02,0.95,0.12,41.91
6,-0.00,0.99,0.12,38.19
6,-0.00,0.99,0.12,47.18
6,-0.04,1.08,0.12,47.18
6,-0.02,0.93,0.11,44.89
6,-0.02,0.90,0.15,39.69
6,-0.10,1.03,0.15,39.20
6,-0.00,1.00,0.10,39.20
6,-0.00,0.97,0.12,43.71
6,0.01,0.97,0.12,41.30
6,-0.09,1.07,0.14,41.30
6,-0.09,0.93,0.11,41.39
6,-0.03,0.93,0.07,39.95
6,-0.04,1.01,0.13,39.95
6,-0.01,1.06,0.10,33.55
6,-0.01,1.06,0.12,43.38
6,-0.01,0.94,0.12,43.14
6,-0.10,1.06,0.14,44.71
6,-0.10,1.02,0.10,39.05
6,-0.02,0.96,0.10,46.23
6,0.00,0.98,0.11,46.23
6,0.00,1.08,0.12,46.65
6,-0.05,1.08,0.06,47.93
6,-0.03,0.93,0.13,47.93
6,-0.01,1.03,0.14,43.51
6,-0.08,1.03,0.09,44.02
6,-0.01,1.02,0.09,44.02
6,0.01,0.95,0.11,43.59
6,0.01,0.95,0.15,38.34
6,-0.09,1.07,0.15,38.50
6,-0.03,0.93,0.12,44.77
6,-0.03,1.00,0.14,37.26
6,-0.03,1.00,0.14,42.80
6,-0.01,1.07,0.11,42.80
6,-0.01,0.94,0.12,36.22
6,-0.01,0.94,0.09,39.91
6,-0.10,1.05,0.15,39.91
6,-0.02,0.97,0.09,42.52
6,-0.02,0.97,0.12,47.52
6,0.01,0.98,0.12,47.29
6,-0.06,1.08,0.14,44.15
6,-0.06,1.11,0.11,43.60
6,-0.03,0.92,0.11,41.03
6,-0.07,1.02,0.14,41.03
6,-0.07,1.03,0.09,46.37
6,-0.01,1.03,0.12,41.20
6,-0.00,0.95,0.12,41.20
6,-0.11,1.07,0.14,45.06
6,-0.11,1.07,0.10,43.63
6,-0.03,0.94,0.10,43.63
6,-0.02,1.00,0.11,42.98
6,-0.02,0.94,0.12,42.26
6,-0.03,1.07,0.12,42.93
6,-0.02,0.93,0.12,41.36
6,-0.02,1.04,0.14,41.04
6,-0.09,1.04,0.14,42.67
6,0.00,0.98,0.10,42.67
6,0.01,0.97,0.12,39.85
6,0.01,0.97,0.15,45.35
6,-0.08,1.08,0.15,45.35
6,-0.03,0.93,0.11,39.57
6,-0.03,0.89,0.13,42.08
6,-0.04,1.02,0.13,42.18
6,-0.01,1.04,0.10,40.61
6,-0.01,0.94,0.12,44.05
6,-0.00,0.94,0.12,38.11
6,-0.10,1.06,0.15,38.11
6,-0.08,0.95,0.11,42.71
6,-0.02,0.95,0.12,42.06
6,-0.01,0.99,0.12,42.06
6,-0.04,1.08,0.12,41.05
6,-0.04,1.08,0.13,36.87
6,-0.03,0.92,0.13,37.39
6,-0.09,1.04,0.14,45.23
6,-0.09,1.06,0.11,40.40
6,0.00,1.00,0.11,42.20
6,0.01,0.97,0.11,42.20
6,0.01,1.07,0.14,42.49
6,-0.10,1.07,0.18,40.62
6,-0.03,0.93,0.12,40.62
6,-0.04,1.00,0.12,38.41
6,-0.04,1.00,0.10,39.66
6,-0.02,1.05,0.10,39.66
6,-0.01,0.95,0.12,42.79
6,-0.01,0.98,0.14,45.48
6,-0.10,1.04,0.14,45.96
6,-0.02,0.96,0.10,43.61
6,-0.02,0.99,0.11,45.18
6,0.00,0.99,0.11,43.94
6,-0.06,1.08,0.12,43.94
6,-0.04,0.93,0.13,41.32
6,-0.04,0.93,0.13,41.75
6,-0.07,1.02,0.13,41.75
6,0.00,1.03,0.09,44.86
6,0.00,1.03,0.11,44.42
6,0.00,0.96,0.11,44.00
6,-0.10,1.06,0.16,36.95
6,-0.10,0.93,0.11,41.06
6,-0.03,0.93,0.11,47.01
6,-0.03,1.00,0.13,47.01
6,-0.02,1.06,0.11,42.48
6,-0.02,1.06,0.07,48.57
6,-0.02,0.93,0.13,48.57
6,-0.10,1.04,0.15,44.09
6,-0.10,1.04,0.10,43.85
6,-0.01,0.98,0.10,43.85
6,0.01,0.97,0.13,42.06
6,0.01,0.95,0.14,37.11
6,-0.07,1.08,0.14,37.23
6,-0.03,0.92,0.11,36.45
6,-0.03,1.01,0.14,42.98
6,-0.06,1.01,0.14,39.58
6,0.00,1.04,0.09,39.58
6,0.06,0.95,0.11,40.34
6,-0.00,0.95,0.14,38.77
6,-0.10,1.06,0.14,38.77
6,-0.02,0.95,0.11,42.86
6,-0.02,0.99,0.12,44.28
6,-0.01,0.99,0.12,43.88
6,-0.04,1.07,0.13,43.10
6,-0.04,0.93,0.12,42.26
6,-0.03,0.93,0.12,44.71
6,-0.09,1.04,0.14,44.71
6,-0.07,1.00,0.09,40.66
7,0.00,0.95,0.11,42.71
7,0.02,1.06,0.16,42.15
7,-0.10,1.06,0.17,44.96
7,-0.01,0.96,0.11,44.96
7,-0.00,0.99,0.13,44.89
7,-0.00,0.99,0.11,38.41
7,-0.05,1.06,0.11,38.91
7,-0.03,0.93,0.11,38.91
7,-0.03,0.90,0.14,45.75
7,-0.08,1.03,0.14,43.76
7,-0.01,1.00,0.10,43.76
7,-0.01,0.97,0.11,48.15
7,0.01,0.97,0.07,41.54
7,-0.08,1.07,0.13,41.54
7,-0.10,0.93,0.11,45.36
7,-0.04,0.93,0.12,38.44
7,-0.03,1.00,0.12,38.44
7,-0.01,1.06,0.10,42.63
7,-0.01,1.00,0.11,45.47
7,-0.01,0.94,0.11,45.39
7,-0.10,1.05,0.15,41.47
7,-0.10,0.98,0.11,44.62
7,-0.02,0.98,0.11,42.22
7,0.00,0.98,0.12,42.22
7,0.00,1.08,0.13,42.63
7,-0.06,1.08,0.17,40.92
7,-0.03,0.93,0.11,40.92
7,-0.06,1.02,0.13,40.47
7,-0.06,1.02,0.10,37.77
7,-0.00,1.03,0.10,37.89
7,0.01,0.96,0.13,44.16
7,0.01,1.00,0.15,47.89
7,-0.10,1.06,0.15,44.08
7,-0.02,0.93,0.13,44.08
7,-0.02,1.00,0.13,40.20
7,-0.02,1.00,0.18,41.14
7,-0.03,1.07,0.11,41.14
7,-0.02,0.93,0.12,46.10
7,-0.02,0.93,0.15,49.96
7,-0.09,1.04,0.15,49.96
7,-0.01,0.99,0.10,42.88
7,-0.01,0.98,0.10,40.97
7,0.00,0.98,0.10,40.78
7,-0.06,1.07,0.13,47.04
7,-0.06,0.93,0.11,43.75
7,-0.04,0.93,0.11,42.28
7,-0.06,1.01,0.14,42.28
7,-0.01,1.04,0.11,40.07
7,-0.01,1.04,0.12,44.59
7,-0.01,0.94,0.12,44.59
7,-0.10,1.07,0.15,37.18
7,-0.10,1.08,0.10,42.07
7,-0.02,0.95,0.10,41.96
7,-0.00,0.99,0.13,39.61
7,-0.00,1.07,0.12,38.47
7,-0.04,1.07,0.12,39.72
7,-0.02,0.93,0.12,39.72
7,-0.02,1.04,0.14,42.28
7,-0.08,1.04,0.16,39.61
7,-0.00,1.00,0.10,39.61
7,0.01,0.98,0.12,39.81
7,0.01,0.98,0.13,42.53
7,-0.08,1.08,0.13,42.98
7,-0.03,0.94,0.11,41.42
7,-0.03,0.89,0.13,49.10
7,-0.04,1.01,0.13,45.50
7,-0.02,1.05,0.09,45.50
7,-0.02,0.94,0.11,40.62
7,-0.01,0.94,0.08,41.96
7,-0.09,1.05,0.14,41.96
7,-0.08,0.97,0.10,47.56
7,-0.02,0.97,0.12,45.29
7,0.01,0.98,0.12,45.29
7,-0.05,1.07,0.12,42.23
7,-0.05,1.12,0.11,47.60
7,-0.03,0.94,0.11,47.49
7,-0.08,1.02,0.14,39.65
7,-0.08,1.02,0.10,44.09
7,-0.01,1.02,0.10,42.28
7,0.01,0.96,0.11,42.28
7,0.04,1.06,0.13,43.20
7,-0.08,1.06,0.17,44.20
7,-0.03,0.94,0.11,44.20
7,-0.03,1.01,0.13,45.34
7,-0.03,1.01,0.10,41.65
7,-0.01,1.05,0.10,41.49
7,-0.02,0.94,0.12,39.93
7,-0.02,0.98,0.15,43.46
7,-0.10,1.04,0.15,45.54
7,-0.02,0.98,0.10,45.54
7,-0.06,0.99,0.12,41.52
7,0.00,0.99,0.12,49.29
7,-0.06,1.08,0.12,49.29
7,-0.03,0.93,0.12,40.90
7,-0.03,0.93,0.14,41.12
7,-0.06,1.01,0.14,41.12
7,-0.00,1.03,0.11,42.22
7,-0.00,1.01,0.11,44.78
7,-0.01,0.95,0.11,45.21
7,-0.09,1.07,0.14,39.72
7,-0.09,0.94,0.10,40.02
7,-0.03,0.94,0.11,37.78
7,-0.02,0.99,0.11,37.78
7,-0.03,1.06,0.11,45.19
7,-0.03,1.06,0.12,42.43
7,-0.02,0.93,0.12,42.43
7,-0.09,1.04,0.14,43.03
7,-0.09,1.04,0.11,42.78
7,-0.01,0.98,0.11,42.37
7,0.01,0.97,0.11,46.29
7,0.01,1.07,0.13,40.12
7,-0.07,1.07,0.13,42.44
7,-0.03,0.94,0.12,42.44
7,-0.04,1.01,0.12,42.82
7,-0.04,1.01,0.10,41.80
7,-0.00,1.04,0.10,41.80
7,0.00,0.95,0.12,43.26
7,0.00,0.95,0.16,37.81
7,-0.10,1.06,0.16,37.77
7,-0.02,0.96,0.10,49.52
7,-0.02,0.99,0.11,43.46
7,-0.00,0.99,0.11,42.25
7,-0.04,1.06,0.12,42.25
7,-0.04,0.92,0.10,48.63
7,-0.03,0.92,0.08,46.01
7,-0.08,1.04,0.14,46.01
7,-0.12,1.01,0.11,42.72
7,0.00,1.01,0.11,40.91
7,0.00,0.96,0.11,40.91
7,-0.08,1.07,0.14,44.07
7,-0.08,1.06,0.11,48.93
7,-0.03,0.94,0.11,48.53
7,-0.03,1.01,0.14,45.39
7,-0.03,1.04,0.11,46.04
7,-0.01,1.04,0.11,47.01
7,-0.01,0.95,0.12,47.01
7,-0.03,1.06,0.14,39.57
7,-0.10,1.06,0.17,42.54
7,-0.02,0.97,0.11,42.54
7,-0.00,0.98,0.11,39.87
7,-0.00,0.98,0.11,44.27
7,-0.05,1.07,0.11,44.31
7,-0.03,0.93,0.11,43.53
7,-0.03,0.89,0.13,42.49
7,-0.07,1.02,0.13,42.33
7,-0.00,1.02,0.09,42.33
7,-0.06,0.96,0.11,33.82
7,0.00,0.96,0.07,44.69
7,-0.09,1.06,0.14,44.69
7,-0.03,0.95,0.12,43.00
7,-0.03,0.95,0.12,44.51
7,-0.02,0.99,0.12,44.51
7,-0.03,1.05,0.13,43.14
7,-0.03,1.00,0.12,41.61
7,-0.02,0.94,0.12,41.59
7,-0.09,1.04,0.15,47.07
7,-0.09,0.98,0.12,39.84
7,-0.01,0.98,0.10,42.50
7,0.00,0.97,0.10,42.50
7,0.06,1.07,0.13,39.84
7,-0.07,1.07,0.12,40.40
7,-0.03,0.93,0.12,40.40
7,-0.05,1.02,0.13,37.78
7,-0.05,1.03,0.10,39.92
7,-0.01,1.03,0.10,40.15
7,-0.01,0.96,0.11,40.93
7,-0.01,1.06,0.14,40.28
7,-0.09,1.06,0.14,39.43
7,-0.02,0.95,0.11,39.43
7,-0.01,1.00,0.12,40.92
7,-0.01,1.00,0.12,43.81
7,-0.03,1.06,0.12,43.81
7,-0.02,0.94,0.11,47.68
7,-0.02,0.94,0.14,42.37
7,-0.09,1.03,0.14,42.88
7,-0.00,0.99,0.10,45.23
7,-0.00,0.97,0.11,41.56
7,0.01,0.97,0.11,41.22
7,-0.08,1.07,0.13,41.22
7,-0.08,0.93,0.12,38.31
7,-0.04,0.93,0.07,47.95
7,-0.05,1.01,0.13,47.95
7,-0.01,1.05,0.10,36.32
7,-0.01,1.05,0.11,41.26
7,-0.02,0.95,0.11,41.26
7,-0.09,1.05,0.15,41.00
7,-0.09,1.02,0.10,40.91
7,-0.02,0.96,0.10,41.33
7,-0.00,0.98,0.12,42.90
7,-0.00,1.07,0.11,40.24
7,-0.05,1.07,0.11,42.97
7,-0.02,0.93,0.11,42.97
7,-0.01,1.03,0.14,46.87
7,-0.07,1.03,0.15,45.71
7,-0.01,1.01,0.09,45.71
7,0.01,0.95,0.12,41.84
7,0.01,0.95,0.15,45.00
7,-0.08,1.06,0.15,45.24
7,-0.03,0.95,0.11,40.54
7,-0.03,1.00,0.12,38.55
7,-0.02,1.00,0.12,37.27
7,-0.02,1.05,0.11,37.27
7,-0.02,0.94,0.12,43.96
7,-0.02,0.94,0.08,40.02
7,-0.10,1.04,0.15,40.02
7,-0.01,0.97,0.10,39.94
7,-0.01,0.97,0.12,42.12
7,0.00,0.98,0.12,42.12
7,-0.06,1.07,0.13,46.29
7,-0.06,1.07,0.11,40.42
7,-0.03,0.94,0.11,40.46
7,-0.06,1.02,0.14,40.46
7,-0.06,1.02,0.10,46.76
7,-0.00,1.02,0.12,43.26
7,0.00,0.95,0.12,43.26
7,0.03,1.05,0.14,45.67
7,-0.09,1.05,0.11,41.02
7,-0.03,0.95,0.11,41.02
7,-0.02,1.00,0.12,46.19
7,-0.02,1.06,0.11,42.34
7,-0.03,1.06,0.11,42.23
7,-0.03,0.94,0.12,41.45
7,-0.03,1.04,0.16,44.53
7,-0.09,1.04,0.16,40.78
7,-0.02,0.98,0.09,40.78
7,-0.06,0.97,0.12,42.66
7,0.01,0.97,0.07,38.29
7,-0.08,1.06,0.13,38.29
7,-0.04,0.94,0.11,42.52
7,-0.04,0.94,0.13,37.48
7,-0.05,1.01,0.13,37.39
7,-0.01,1.03,0.11,41.31
7,-0.01,1.02,0.11,46.22
8,-0.08,1.03,0.15,45.79
8,-0.08,1.00,0.09,43.47
8,-0.01,1.00,0.09,43.70
8,0.01,0.97,0.11,43.70
8,0.01,1.07,0.13,38.39
8,-0.08,1.07,0.18,40.20
8,-0.03,0.94,0.11,40.20
8,-0.04,1.01,0.13,43.57
8,-0.04,1.01,0.11,38.69
8,-0.01,1.04,0.11,38.69
8,-0.01,0.94,0.11,41.71
8,-0.01,0.99,0.14,46.07
8,-0.10,1.05,0.14,45.53
8,-0.02,0.96,0.10,44.74
8,-0.02,0.98,0.11,50.93
8,-0.01,0.98,0.11,42.89
8,-0.05,1.07,0.12,42.89
8,-0.03,0.94,0.11,40.49
8,-0.03,0.94,0.09,38.88
8,-0.07,1.02,0.15,38.88
8,-0.00,1.01,0.10,36.42
8,-0.00,1.02,0.12,44.03
8,-0.00,0.96,0.12,44.16
8,-0.09,1.06,0.14,50.42
8,-0.09,0.95,0.11,48.70
8,-0.02,0.95,0.11,42.65
8,-0.03,1.00,0.12,42.65
8,-0.02,1.06,0.12,40.53
8,-0.02,1.06,0.11,42.99
8,-0.02,0.95,0.11,42.99
8,-0.10,1.05,0.15,44.37
8,-0.10,1.05,0.11,43.25
8,-0.01,0.97,0.11,43.25
8,-0.00,0.97,0.13,39.40
8,-0.00,0.94,0.13,45.55
8,-0.06,1.07,0.13,41.27
8,-0.03,0.93,0.11,41.27
8,-0.03,1.01,0.13,45.32
8,-0.06,1.01,0.16,39.06
8,-0.00,1.02,0.10,39.06
8,-0.06,0.96,0.11,41.81
8,0.00,0.96,0.14,44.42
8,-0.08,1.07,0.14,44.42
8,-0.02,0.95,0.10,50.08
8,-0.02,0.99,0.12,39.46
8,-0.02,0.99,0.12,39.31
8,-0.03,1.05,0.11,38.53
8,-0.03,0.93,0.11,39.21
8,-0.02,0.93,0.11,38.28
8,-0.08,1.03,0.14,38.28
8,-0.08,0.99,0.10,39.65
8,-0.01,0.99,0.12,38.53
8,0.00,0.97,0.12,38.53
8,-0.07,1.06,0.14,36.84
8,-0.07,1.06,0.11,44.87
8,-0.02,0.93,0.11,44.98
8,-0.04,1.01,0.13,41.06
8,-0.04,1.04,0.11,39.36
8,-0.01,1.04,0.11,42.01
8,-0.01,0.95,0.12,42.01
8,-0.03,1.05,0.15,44.65
8,-0.10,1.05,0.17,41.99
8,-0.02,0.96,0.11,41.99
8,-0.01,0.98,0.12,39.19
8,-0.01,0.98,0.12,41.31
8,-0.04,1.07,0.12,41.31
8,-0.02,0.94,0.12,40.34
8,-0.02,0.90,0.15,36.10
8,-0.08,1.02,0.15,36.61
8,-0.01,1.01,0.10,40.53
8,-0.01,0.96,0.12,40.93
8,-0.01,0.96,0.12,42.25
8,-0.07,1.07,0.14,42.25
8,-0.09,0.94,0.11,49.92
8,-0.02,0.94,0.13,37.29
8,-0.03,1.01,0.13,37.29
8,-0.02,1.04,0.11,39.95
8,-0.02,1.01,0.13,37.26
8,-0.01,0.94,0.13,37.24
8,-0.09,1.04,0.14,41.94
8,-0.09,0.97,0.10,42.02
8,-0.01,0.97,0.10,39.93
8,-0.01,0.98,0.12,39.93
8,-0.06,1.06,0.11,43.04
8,-0.06,1.06,0.12,42.99
8,-0.03,0.93,0.12,42.99
8,-0.07,1.02,0.14,40.40
8,-0.07,1.02,0.10,40.30
8,-0.01,1.01,0.10,40.30
8,-0.00,0.96,0.10,41.10
8,-0.00,1.00,0.14,44.42
8,-0.09,1.06,0.14,43.45
8,-0.02,0.95,0.11,43.45
8,-0.02,1.00,0.12,42.24
8,-0.02,1.00,0.11,39.51
8,-0.03,1.05,0.11,39.51
8,-0.02,0.94,0.11,42.19
8,-0.02,0.94,0.15,40.65
8,-0.08,1.04,0.15,40.65
8,-0.02,0.98,0.11,41.42
8,-0.02,0.98,0.11,46.39
8,0.00,0.98,0.11,46.77
8,-0.06,1.06,0.12,42.07
8,-0.06,0.94,0.11,40.76
8,-0.03,0.94,0.11,40.20
8,-0.05,1.01,0.14,40.20
8,-0.01,1.03,0.11,43.08
8,-0.01,1.03,0.11,43.10
8,-0.01,0.96,0.11,43.10
8,-0.09,1.05,0.14,41.58
8,-0.09,1.05,0.11,41.76
8,-0.02,0.96,0.11,41.97
8,-0.01,1.00,0.12,41.19
8,-0.01,0.99,0.12,39.20
8,-0.03,1.06,0.12,45.48
8,-0.02,0.94,0.12,45.48
8,-0.02,1.04,0.14,45.38
8,-0.08,1.04,0.16,41.07
8,-0.01,0.99,0.10,41.07
8,0.01,0.98,0.11,45.42
8,0.01,0.98,0.14,40.49
8,-0.07,1.06,0.14,40.49
8,-0.03,0.94,0.11,49.35
8,-0.03,0.95,0.14,41.31
8,-0.05,1.01,0.14,41.39
8,-0.01,1.04,0.10,40.61
8,-0.01,0.95,0.12,46.13
8,-0.01,0.95,0.12,44.33
8,-0.09,1.05,0.14,44.33
8,-0.08,0.97,0.11,44.07
8,-0.02,0.97,0.12,45.15
8,-0.01,0.99,0.12,45.15
8,-0.04,1.07,0.12,37.17
8,-0.04,1.07,0.12,40.18
8,-0.03,0.94,0.12,40.08
8,-0.07,1.03,0.15,45.56
8,-0.07,1.01,0.10,44.17
8,-0.00,1.01,0.10,40.26
8,-0.00,0.97,0.12,40.26
8,-0.02,1.05,0.14,45.63
8,-0.09,1.05,0.17,44.25
8,-0.02,0.94,0.10,44.25
8,-0.02,1.01,0.12,43.36
8,-0.02,1.01,0.11,42.84
8,-0.02,1.05,0.11,42.52
8,-0.01,0.94,0.12,44.87
8,-0.01,0.98,0.14,41.05
8,-0.09,1.04,0.14,38.27
8,-0.01,0.97,0.11,38.27
8,-0.01,0.98,0.13,42.72
8,-0.00,0.98,0.14,38.15
8,-0.06,1.06,0.14,38.15
8,-0.08,0.94,0.13,45.50
8,-0.01,0.94,0.12,41.66
8,-0.07,1.02,0.12,41.66
8,-0.01,1.02,0.11,45.82
8,-0.01,1.02,0.12,43.03
8,-0.00,0.96,0.12,43.43
8,-0.09,1.06,0.14,35.59
8,-0.09,0.95,0.11,43.86
8,-0.03,0.95,0.11,41.86
8,-0.03,1.00,0.13,41.86
8,-0.02,1.05,0.12,43.41
8,-0.02,1.05,0.11,39.64
8,-0.02,0.95,0.11,39.64
8,-0.08,1.03,0.14,41.65
8,-0.08,1.03,0.10,40.02
8,-0.01,0.99,0.10,40.65
8,0.01,0.97,0.11,40.65
8,0.01,1.00,0.14,36.45
8,-0.07,1.06,0.14,44.16
8,-0.02,0.94,0.10,44.16
8,-0.02,1.02,0.13,40.25
8,-0.05,1.02,0.16,41.32
8,-0.01,1.03,0.10,41.32
8,-0.01,0.95,0.12,37.43
8,-0.01,0.95,0.15,42.17
8,-0.10,1.06,0.15,42.17
8,-0.02,0.96,0.11,43.20
8,-0.02,1.00,0.12,45.14
8,-0.02,1.00,0.12,45.02
8,-0.04,1.06,0.12,41.10
8,-0.04,0.94,0.12,38.73
8,-0.03,0.94,0.12,41.32
8,-0.08,1.02,0.14,41.32
8,-0.06,1.01,0.10,40.26
8,-0.00,1.01,0.12,42.05
8,0.00,0.98,0.12,42.05
8,-0.08,1.06,0.13,41.12
8,-0.08,1.00,0.11,40.48
8,-0.03,0.94,0.11,40.58
8,-0.03,1.01,0.13,42.93
8,-0.03,1.04,0.10,45.38
8,-0.02,1.04,0.10,42.60
8,-0.02,0.94,0.12,42.60
8,-0.02,1.04,0.14,42.38
8,-0.09,1.04,0.16,44.57
8,-0.02,0.98,0.09,44.57
8,-0.01,0.99,0.11,41.54
8,-0.01,0.99,0.12,39.79
8,-0.05,1.06,0.12,39.72
8,-0.03,0.94,0.13,41.29
8,-0.03,0.96,0.15,40.93
8,-0.06,1.02,0.15,35.84
8,-0.01,1.01,0.10,35.84
8,-0.01,0.97,0.11,35.27
8,0.01,0.97,0.08,36.82
8,-0.08,1.06,0.14,36.82
8,-0.09,0.95,0.11,40.57
8,-0.03,0.95,0.12,39.18
8,-0.02,0.99,0.12,39.18
8,-0.03,1.06,0.11,39.58
8,-0.03,1.12,0.12,39.41
8,-0.02,0.94,0.12,39.24
8,-0.08,1.04,0.14,36.10
8,-0.08,0.98,0.11,39.27
8,-0.02,0.98,0.11,38.53
8,-0.00,0.97,0.11,38.53
8,-0.05,1.06,0.13,42.35
8,-0.05,1.06,0.18,40.93
8,-0.03,0.93,0.12,40.93
8,-0.05,1.02,0.14,42.46
8,-0.05,1.02,0.10,41.16
8,-0.01,1.02,0.10,40.75
8,-0.00,0.96,0.12,47.01
8,-0.00,0.99,0.15,41.03
8,-0.08,1.05,0.15,40.81
8,-0.02,0.96,0.10,40.81
8,-0.02,1.00,0.12,39.51
8,-0.02,1.00,0.11,42.20
8,-0.03,1.05,0.11,42.20
8,-0.02,0.94,0.11,41.98
8,-0.02,0.94,0.14,38.87
9,-0.02,1.03,0.11,42.84
9,-0.02,1.03,0.13,43.65
9,-0.01,0.96,0.13,43.65
9,-0.08,1.05,0.15,37.01
9,-0.08,1.03,0.11,37.07
9,-0.02,0.97,0.11,36.92
9,-0.01,1.00,0.12,42.41
9,-0.01,1.06,0.13,44.57
9,-0.05,1.06,0.13,43.37
9,-0.02,0.94,0.12,43.37
9,-0.00,1.02,0.15,41.89
9,-0.07,1.02,0.16,45.15
9,-0.01,1.00,0.10,45.15
9,0.01,0.97,0.12,40.58
9,0.01,0.97,0.14,41.85
9,-0.08,1.05,0.14,41.88
9,-0.02,0.95,0.11,47.36
9,-0.02,1.01,0.14,41.98
9,-0.05,1.01,0.14,39.68
9,-0.03,1.04,0.12,39.68
9,-0.02,0.95,0.12,39.87
9,-0.02,0.95,0.08,39.23
9,-0.09,1.04,0.15,39.23
9,-0.01,0.98,0.10,42.90
9,-0.01,0.98,0.12,41.21
9,-0.01,0.98,0.12,41.21
9,-0.05,1.06,0.13,44.16
9,-0.05,1.01,0.11,44.92
9,-0.03,0.95,0.11,39.69
9,-0.06,1.02,0.14,39.69
9,-0.06,1.02,0.10,40.83
9,-0.01,1.02,0.12,41.55
9,-0.00,0.97,0.12,41.55
9,-0.02,1.06,0.14,37.84
9,-0.09,1.06,0.11,42.64
9,-0.02,0.94,0.11,42.64
9,-0.03,0.99,0.12,44.24
9,-0.03,0.98,0.12,39.51
9,-0.03,1.05,0.12,39.32
9,-0.02,0.95,0.12,45.59
9,-0.02,1.04,0.14,40.14
9,-0.08,1.04,0.14,40.07
9,-0.01,0.99,0.11,40.07
9,-0.00,0.98,0.12,43.41
9,-0.00,0.98,0.08,42.30
9,-0.06,1.05,0.14,42.30
9,-0.03,0.94,0.12,43.12
9,-0.03,0.94,0.14,42.75
9,-0.05,1.02,0.14,42.39
9,-0.01,1.03,0.11,35.34
9,-0.01,1.02,0.12,44.01
9,-0.01,0.96,0.12,43.60
9,-0.08,1.05,0.14,43.60
9,-0.08,0.96,0.11,41.04
9,-0.02,0.96,0.11,47.50
9,-0.01,0.99,0.11,47.50
9,-0.03,1.05,0.12,41.99
9,-0.03,1.05,0.11,45.49
9,-0.02,0.95,0.11,45.49
9,-0.07,1.03,0.14,46.49
9,-0.07,1.00,0.10,40.54
9,-0.01,1.00,0.10,39.94
9,-0.00,0.97,0.12,38.38
9,-0.00,1.06,0.14,39.59
9,-0.07,1.06,0.14,38.63
9,-0.03,0.94,0.11,38.63
9,-0.04,1.01,0.13,48.01
9,-0.04,1.01,0.18,41.42
9,-0.02,1.03,0.11,41.42
9,-0.01,0.95,0.12,39.97
9,-0.01,0.99,0.14,38.08
9,-0.09,1.05,0.14,37.82
9,-0.02,0.97,0.11,38.61
9,-0.02,0.99,0.11,42.19
9,-0.01,0.99,0.11,43.48
9,-0.05,1.05,0.12,43.48
9,-0.02,0.94,0.11,39.31
9,-0.02,0.94,0.08,38.04
9,-0.08,1.02,0.14,38.04
9,-0.02,1.01,0.11,41.52
9,-0.02,1.01,0.11,42.14
9,-0.00,0.96,0.11,42.14
9,-0.08,1.06,0.14,43.82
9,-0.08,1.08,0.12,47.46
9,-0.02,0.95,0.12,45.87
9,-0.04,1.00,0.12,45.87
9,-0.04,1.04,0.11,42.52
9,-0.02,1.04,0.12,40.61
9,-0.02,0.94,0.12,40.61
9,-0.02,1.05,0.14,44.24
9,-0.08,1.05,0.10,41.36
9,-0.02,0.99,0.10,41.36
9,-0.01,0.97,0.12,38.72
9,-0.01,1.00,0.13,45.01
9,-0.06,1.06,0.13,45.17
9,-0.03,0.94,0.11,40.47
9,-0.03,1.01,0.14,36.13
9,-0.06,1.01,0.14,35.36
9,-0.01,1.02,0.11,35.36
9,-0.06,0.96,0.12,37.86
9,0.00,0.96,0.08,39.02
9,-0.07,1.04,0.14,39.02
9,-0.03,0.95,0.12,42.93
9,-0.03,0.95,0.13,43.68
9,-0.02,0.99,0.13,43.22
9,-0.04,1.05,0.12,44.78
9,-0.04,1.01,0.12,44.31
9,-0.02,0.94,0.12,40.40
9,-0.08,1.03,0.14,40.40
9,-0.08,0.99,0.10,46.38
9,-0.01,0.99,0.06,41.13
9,-0.00,0.97,0.13,41.13
9,-0.07,1.06,0.14,43.26
9,-0.07,1.06,0.11,42.15
9,-0.03,0.94,0.11,42.15
9,-0.05,1.01,0.13,45.96
9,-0.05,1.03,0.10,45.09
9,-0.01,1.03,0.10,44.87
9,-0.01,0.95,0.11,42.52
9,-0.01,1.05,0.14,42.26
9,-0.09,1.05,0.14,44.63
9,-0.02,0.96,0.11,44.63
9,-0.01,0.98,0.12,45.56
9,-0.01,0.98,0.12,41.47
9,-0.04,1.04,0.12,41.47
9,-0.02,0.93,0.12,45.01
9,-0.02,0.90,0.14,39.38
9,-0.08,1.03,0.14,39.28
9,-0.01,1.00,0.11,40.06
9,-0.01,0.97,0.12,41.42
9,-0.00,0.97,0.12,44.16
9,-0.08,1.06,0.13,44.16
9,-0.09,0.94,0.12,37.45
9,-0.02,0.94,0.07,38.77
9,-0.04,1.00,0.13,38.77
9,-0.02,1.03,0.11,45.94
9,-0.02,1.03,0.10,41.53
9,-0.01,0.95,0.10,41.53
9,-0.09,1.04,0.14,44.94
9,-0.09,1.04,0.11,39.91
9,-0.02,0.98,0.11,42.23
9,-0.01,0.98,0.11,42.23
9,-0.01,1.06,0.12,40.11
9,-0.05,1.06,0.11,38.78
9,-0.02,0.95,0.11,38.78
9,-0.00,1.03,0.14,40.21
9,-0.06,1.03,0.10,40.73
9,-0.01,1.02,0.10,40.73
9,-0.00,0.97,0.11,37.63
9,-0.00,1.00,0.13,39.73
9,-0.08,1.06,0.13,39.31
9,-0.02,0.95,0.11,34.61
9,-0.02,1.01,0.13,43.83
9,-0.02,1.01,0.13,38.85
9,-0.03,1.04,0.11,38.85
9,-0.02,0.95,0.11,41.20
9,-0.02,0.95,0.07,43.35
9,-0.08,1.03,0.14,43.35
9,-0.01,0.99,0.11,40.20
9,-0.01,0.99,0.11,40.73
9,-0.01,0.99,0.11,40.80
9,-0.06,1.06,0.13,43.94
9,-0.06,1.01,0.12,37.24
9,-0.03,0.94,0.12,41.88
9,-0.06,1.01,0.13,41.88
9,-0.06,1.03,0.10,46.99
9,-0.02,1.03,0.11,46.57
9,-0.02,0.96,0.11,46.57
9,-0.01,1.05,0.14,43.82
9,-0.07,1.05,0.11,40.36
9,-0.02,0.96,0.11,40.36
9,-0.03,0.99,0.13,41.40
9,-0.03,0.99,0.11,37.41
9,-0.03,1.06,0.11,36.80
9,-0.02,0.94,0.11,41.50
9,-0.02,1.04,0.15,44.52
10,-0.02,0.98,0.11,41.61
10,-0.02,0.99,0.13,39.18
10,-0.06,1.05,0.13,39.44
10,-0.04,0.95,0.12,38.65
10,-0.04,1.01,0.14,43.61
10,-0.06,1.01,0.17,39.47
10,-0.01,1.02,0.11,39.47
10,-0.01,0.96,0.11,41.44
10,-0.01,0.96,0.13,43.37
10,-0.07,1.06,0.13,43.37
10,-0.02,0.96,0.11,38.32
10,-0.02,1.00,0.11,41.47
10,-0.03,1.00,0.11,41.96
10,-0.03,1.04,0.10,40.39
10,-0.03,0.94,0.12,38.80
10,-0.03,0.94,0.12,41.75
10,-0.07,1.03,0.12,41.75
10,-0.09,0.98,0.11,42.71
10,-0.03,0.98,0.12,42.88
10,-0.00,0.98,0.12,42.88
10,-0.07,1.05,0.12,47.54
10,-0.07,1.05,0.11,40.80
10,-0.03,0.94,0.11,40.69
10,-0.05,1.01,0.13,39.12
10,-0.05,1.03,0.11,41.40
10,-0.02,1.03,0.11,38.03
10,-0.01,0.96,0.11,38.03
10,-0.01,1.05,0.14,37.43
10,-0.08,1.05,0.18,36.94
10,-0.02,0.97,0.12,36.94
10,-0.02,1.00,0.13,41.74
10,-0.02,1.00,0.12,38.74
10,-0.04,1.05,0.12,38.74
10,-0.02,0.94,0.12,45.43
10,-0.02,0.96,0.14,44.72
10,-0.07,1.02,0.14,45.16
10,-0.02,1.00,0.10,40.46
10,-0.02,0.97,0.12,37.36
10,-0.00,0.97,0.12,43.59
10,-0.07,1.06,0.14,43.59
10,-0.09,0.96,0.11,41.21
10,-0.03,0.96,0.12,43.36
10,-0.03,1.00,0.12,43.36
10,-0.03,1.04,0.11,41.86
10,-0.03,1.04,0.12,40.50
10,-0.01,0.96,0.12,40.49
10,-0.08,1.04,0.15,42.06
10,-0.08,1.04,0.11,47.11
10,-0.02,0.97,0.11,38.21
10,-0.01,0.99,0.11,38.21
10,-0.01,1.05,0.12,40.69
10,-0.05,1.05,0.12,43.90
10,-0.02,0.94,0.12,43.90
10,-0.06,1.01,0.14,38.47
10,-0.06,1.01,0.10,42.36
10,-0.01,1.01,0.10,42.36
10,-0.01,0.97,0.11,38.29
10,-0.01,1.00,0.14,39.88
10,-0.07,1.06,0.14,39.69
10,-0.03,0.95,0.11,44.39
10,-0.03,1.00,0.12,37.26
10,-0.03,1.00,0.12,44.76
10,-0.04,1.04,0.11,44.76
10,-0.01,0.95,0.11,42.86
10,-0.01,0.95,0.13,41.69
10,-0.09,1.03,0.13,41.69
10,-0.01,0.98,0.10,43.81
10,-0.01,0.99,0.11,41.68
10,-0.01,0.99,0.11,42.18
10,-0.06,1.05,0.13,46.09
10,-0.06,0.95,0.11,39.86
10,-0.03,0.95,0.11,38.84
10,-0.05,1.02,0.12,38.84
10,-0.02,1.02,0.11,45.16
10,-0.02,1.02,0.12,44.07
10,-0.01,0.97,0.12,44.07
10,-0.08,1.05,0.13,42.30
10,-0.08,1.05,0.11,42.88
10,-0.02,0.96,0.11,42.52
10,-0.02,1.00,0.12,42.52
10,-0.02,1.04,0.12,37.33
10,-0.03,1.04,0.12,43.87
10,-0.02,0.96,0.11,43.87
10,-0.02,1.03,0.14,41.98
10,-0.07,1.03,0.17,41.13
10,-0.02,1.00,0.11,41.13
10,-0.00,0.98,0.13,39.56
10,-0.00,0.98,0.14,41.36
10,-0.06,1.05,0.14,41.36
10,-0.03,0.95,0.11,44.43
10,-0.03,0.94,0.13,43.66
10,-0.05,1.01,0.13,43.11
10,-0.03,1.02,0.11,46.24
10,-0.03,0.96,0.11,42.76
10,-0.01,0.96,0.11,42.13
10,-0.08,1.05,0.14,42.13
10,-0.08,0.97,0.11,43.63
10,-0.02,0.97,0.12,40.85
10,-0.02,0.99,0.12,40.85
10,-0.05,1.05,0.12,39.50
10,-0.05,1.05,0.11,37.57
10,-0.03,0.95,0.11,38.12
10,-0.07,1.03,0.13,41.25
10,-0.07,1.00,0.11,42.66
10,-0.01,1.00,0.11,43.84
10,-0.00,0.96,0.12,43.84
10,-0.00,1.06,0.13,37.90
10,-0.07,1.06,0.18,41.02
10,-0.03,0.95,0.12,41.02
10,-0.04,1.01,0.12,44.84
10,-0.04,1.01,0.11,38.53
10,-0.02,1.04,0.11,38.53
10,-0.01,0.96,0.11,39.83
10,-0.01,0.98,0.14,36.92
10,-0.08,1.04,0.14,37.12
10,-0.02,0.99,0.11,37.12
10,-0.02,0.99,0.11,46.24
10,-0.02,0.99,0.11,41.88
10,-0.05,1.05,0.13,41.88
10,-0.02,0.94,0.10,40.69
10,-0.02,0.94,0.08,42.65
10,-0.06,1.03,0.14,42.65
10,-0.01,1.02,0.10,44.04
10,-0.01,1.02,0.12,42.84
10,-0.01,0.97,0.12,42.94
10,-0.07,1.04,0.14,46.86
10,-0.07,0.96,0.11,44.36
10,-0.03,0.96,0.11,48.63
10,-0.02,1.00,0.13,48.63
10,-0.04,1.03,0.12,44.37
10,-0.04,1.03,0.12,42.14
10,-0.02,0.95,0.12,42.14
10,-0.07,1.04,0.13,44.69
10,-0.07,1.04,0.11,39.86
10,-0.02,0.99,0.11,39.26
10,-0.01,0.97,0.12,39.26
10,-0.01,0.99,0.14,44.88
10,-0.06,1.05,0.14,42.91
10,-0.03,0.95,0.11,42.91
10,-0.03,1.01,0.14,39.80
10,-0.06,1.01,0.17,43.95
10,-0.02,1.03,0.10,43.95
10,-0.02,0.96,0.12,43.46
10,-0.02,0.96,0.14,38.70
10,-0.08,1.05,0.14,38.70
10,-0.03,0.97,0.11,50.13
10,-0.03,0.99,0.12,41.38
10,-0.02,0.99,0.12,41.15
10,-0.04,1.05,0.12,39.59
10,-0.04,0.95,0.11,43.12
10,-0.02,0.95,0.11,44.89
10,-0.08,1.03,0.15,44.89
10,-0.08,1.00,0.10,36.71
10,-0.01,1.00,0.12,44.44
10,-0.01,0.97,0.12,44.44
10,-0.06,1.06,0.12,43.88
10,-0.06,1.06,0.11,41.53
10,-0.02,0.96,0.11,41.81
10,-0.03,1.01,0.14,44.16
10,-0.03,1.03,0.11,40.54
10,-0.02,1.03,0.11,39.57
10,-0.02,0.97,0.11,39.57
10,-0.02,1.03,0.14,40.69
10,-0.08,1.03,0.18,39.49
10,-0.02,0.98,0.12,39.49
10,-0.02,0.98,0.12,39.58
10,-0.02,0.98,0.13,42.42
10,-0.04,1.04,0.13,42.42
10,-0.02,0.94,0.12,41.52
10,-0.02,0.96,0.13,46.75
10,-0.06,1.02,0.13,46.17
10,-0.02,1.01,0.10,43.03
10,-0.02,0.97,0.11,43.25
10,-0.02,0.97,0.11,41.66
10,-0.07,1.05,0.13,41.66
10,-0.09,0.96,0.12,44.13
10,-0.03,0.96,0.12,41.72
10,-0.04,1.00,0.12,41.72
10,-0.02,1.04,0.11,38.41
10,-0.02,1.01,0.11,40.79
10,-0.02,0.95,0.11,41.14
10,-0.07,1.04,0.13,41.92
10,-0.07,0.98,0.11,33.06
10,-0.01,0.98,0.11,41.73
10,-0.01,0.99,0.12,41.73
10,-0.05,1.05,0.14,40.01
10,-0.05,1.05,0.19,42.09
10,-0.03,0.94,0.12,42.09
10,-0.06,1.01,0.14,41.96
10,-0.06,1.01,0.10,40.19
10,-0.02,1.02,0.10,40.19
10,-0.00,0.96,0.12,41.92
10,-0.00,0.99,0.14,47.04
10,-0.08,1.05,0.14,43.28
10,-0.02,0.97,0.10,43.28
10,-0.02,0.99,0.12,38.43
10,-0.03,0.99,0.07,44.54
10,-0.03,1.05,0.13,44.54
11,-0.02,0.96,0.12,41.98
11,-0.04,1.01,0.12,41.98
11,-0.02,1.03,0.10,37.99
11,-0.02,1.02,0.12,40.00
11,-0.02,0.96,0.12,40.29
11,-0.08,1.04,0.13,39.51
11,-0.08,0.96,0.11,38.13
11,-0.02,0.96,0.11,38.49
11,-0.02,0.99,0.12,38.49
11,-0.04,1.05,0.11,37.52
11,-0.04,1.05,0.12,44.45
11,-0.02,0.95,0.12,44.45
11,-0.07,1.02,0.14,39.44
11,-0.07,1.02,0.10,39.35
11,-0.02,0.99,0.10,39.68
11,-0.01,0.98,0.11,38.11
11,-0.01,1.05,0.14,42.87
11,-0.06,1.05,0.14,46.15
11,-0.03,0.95,0.11,46.15
11,-0.04,1.01,0.12,39.93
11,-0.04,1.01,0.11,43.03
11,-0.02,1.04,0.11,43.03
11,-0.02,0.96,0.12,41.90
11,-0.02,0.96,0.13,43.70
11,-0.07,1.04,0.13,43.70
11,-0.01,0.98,0.11,39.01
11,-0.01,0.99,0.12,45.93
11,-0.01,0.99,0.12,40.82
11,-0.05,1.05,0.12,40.82
11,-0.05,0.95,0.12,41.89
11,-0.02,0.95,0.08,40.87
11,-0.05,1.02,0.14,40.87
11,-0.02,1.01,0.11,40.54
11,-0.02,1.01,0.11,42.34
11,-0.01,0.98,0.11,42.34
11,-0.07,1.05,0.13,41.25
11,-0.07,1.03,0.11,42.88
11,-0.03,0.97,0.11,42.37
11,-0.03,1.00,0.13,43.94
11,-0.03,1.04,0.11,44.46
11,-0.03,1.04,0.11,40.48
11,-0.02,0.96,0.11,40.48
11,-0.01,1.03,0.14,44.29
11,-0.07,1.03,0.17,40.67
11,-0.01,0.99,0.11,40.67
11,-0.01,0.99,0.11,41.52
11,-0.01,0.99,0.13,39.60
11,-0.06,1.05,0.13,39.59
11,-0.03,0.95,0.11,42.72
11,-0.03,0.95,0.14,42.77
11,-0.05,1.01,0.14,38.17
11,-0.03,1.02,0.11,38.17
11,-0.03,0.97,0.11,36.58
11,-0.01,0.97,0.08,42.11
11,-0.08,1.05,0.14,42.11
11,-0.08,0.96,0.11,37.09
11,-0.02,0.96,0.12,41.74
11,-0.03,0.99,0.12,41.74
11,-0.05,1.03,0.12,43.45
11,-0.05,1.01,0.11,42.60
11,-0.01,0.95,0.11,42.33
11,-0.07,1.03,0.14,44.68
11,-0.07,0.99,0.12,39.80
11,-0.02,0.99,0.12,39.45
11,-0.01,0.97,0.12,39.45
11,-0.06,1.06,0.13,42.06
11,-0.06,1.06,0.18,42.46
11,-0.02,0.96,0.12,42.46
11,-0.04,1.01,0.12,48.58
11,-0.04,1.03,0.11,48.68
11,-0.01,1.03,0.11,49.09
11,-0.01,0.97,0.13,39.69
11,-0.01,1.04,0.14,43.06
11,-0.08,1.04,0.14,41.62
11,-0.02,0.98,0.11,41.62
11,-0.01,0.99,0.12,44.80
11,-0.01,0.99,0.07,38.38
11,-0.05,1.05,0.13,38.38
11,-0.02,0.96,0.11,43.49
11,-0.02,0.96,0.14,48.28
11,-0.06,1.01,0.14,48.28
11,-0.02,1.01,0.11,41.88
11,-0.02,1.03,0.12,43.31
11,-0.01,0.96,0.12,42.07
11,-0.07,1.05,0.13,42.07
11,-0.07,0.96,0.11,42.19
11,-0.03,0.96,0.12,43.12
11,-0.04,1.00,0.12,43.12
11,-0.02,1.03,0.11,41.11
11,-0.02,1.03,0.12,43.55
11,-0.02,0.96,0.12,43.55
11,-0.07,1.03,0.13,40.61
11,-0.07,1.05,0.11,41.17
11,-0.02,0.98,0.11,41.05
11,-0.01,0.98,0.11,40.27
11,-0.01,1.05,0.12,45.32
11,-0.04,1.05,0.12,41.14
11,-0.03,0.96,0.11,41.14
11,-0.05,1.02,0.14,40.07
11,-0.05,1.02,0.17,43.84
11,-0.01,1.02,0.10,43.84
11,-0.01,0.97,0.11,48.04
11,-0.01,0.97,0.14,49.51
11,-0.08,1.05,0.14,49.67
11,-0.02,0.96,0.12,40.27
11,-0.02,1.00,0.11,43.08
11,-0.02,1.00,0.11,40.07
11,-0.04,1.03,0.12,40.07
11,-0.04,0.95,0.11,46.32
11,-0.02,0.95,0.07,45.22
11,-0.08,1.03,0.13,45.22
11,-0.08,0.99,0.11,37.67
11,-0.02,0.99,0.12,39.86
11,-0.01,0.98,0.12,39.86
11,-0.06,1.04,0.13,34.38
11,-0.06,1.02,0.11,38.47
11,-0.04,0.95,0.11,39.06
11,-0.05,1.01,0.12,48.46
11,-0.05,1.02,0.11,42.83
11,-0.02,1.02,0.11,41.17
11,-0.01,0.97,0.12,41.17
11,-0.01,1.04,0.14,44.03
11,-0.07,1.04,0.17,38.93
11,-0.03,0.97,0.11,38.93
11,-0.03,0.99,0.11,47.41
11,-0.03,0.99,0.12,40.62
11,-0.04,1.05,0.12,40.36
11,-0.02,0.95,0.12,44.28
11,-0.02,0.96,0.14,41.71
11,-0.06,1.03,0.14,39.31
11,-0.02,1.00,0.11,39.31
11,-0.01,0.98,0.12,41.40
11,-0.01,0.98,0.07,44.46
11,-0.06,1.05,0.13,44.46
11,-0.03,0.95,0.11,43.44
11,-0.03,0.95,0.13,42.01
11,-0.03,1.01,0.13,42.01
11,-0.02,1.02,0.11,41.66
11,-0.02,1.03,0.12,40.08
11,-0.02,0.96,0.12,40.45
11,-0.08,1.04,0.15,40.45
11,-0.08,0.97,0.10,45.32
11,-0.02,0.97,0.12,44.07
11,-0.02,0.99,0.12,44.07
11,-0.04,1.04,0.13,40.78
11,-0.04,1.04,0.11,45.49
11,-0.03,0.95,0.11,45.49
11,-0.07,1.02,0.13,37.89
11,-0.07,1.01,0.10,41.57
11,-0.03,1.01,0.10,41.51
11,-0.00,0.98,0.10,39.16
11,-0.00,1.05,0.13,41.51
11,-0.07,1.05,0.13,47.10
11,-0.02,0.95,0.11,47.10
11,-0.03,1.01,0.12,40.38
11,-0.03,1.01,0.11,43.40
11,-0.02,1.04,0.11,43.40
11,-0.01,0.96,0.11,37.28
11,-0.01,0.96,0.14,37.12
11,-0.07,1.03,0.14,36.94
11,-0.02,0.99,0.11,43.21
11,-0.02,0.99,0.11,45.78
11,-0.01,0.99,0.11,40.11
11,-0.05,1.05,0.11,40.11
11,-0.05,0.96,0.11,46.67
11,-0.02,0.96,0.07,42.56
11,-0.05,1.01,0.13,42.56
11,-0.02,1.02,0.11,43.94
11,-0.02,1.02,0.11,38.97
11,-0.01,0.97,0.11,38.97
11,-0.07,1.05,0.13,35.96
11,-0.07,1.02,0.10,38.39
11,-0.02,0.96,0.10,38.93
11,-0.03,1.00,0.12,38.14
11,-0.03,1.03,0.12,46.81
11,-0.04,1.03,0.12,40.85
11,-0.02,0.95,0.12,40.85
11,-0.00,1.03,0.13,42.41
11,-0.06,1.03,0.18,41.09
11,-0.03,0.99,0.11,41.09
11,-0.01,0.98,0.12,48.94
11,-0.01,0.98,0.14,42.19
11,-0.05,1.04,0.14,41.79
11,-0.02,0.96,0.10,38.66
11,-0.02,1.01,0.14,39.68
11,-0.04,1.01,0.14,39.31
11,-0.02,1.03,0.11,39.31
11,-0.01,0.97,0.11,39.95
11,-0.01,0.97,0.08,38.94
11,-0.08,1.04,0.14,38.94
11,-0.02,0.97,0.10,41.48
11,-0.02,0.97,0.13,42.82
11,-0.02,0.99,0.13,42.82
11,-0.04,1.05,0.12,41.71
11,-0.04,1.00,0.12,38.72
11,-0.03,0.94,0.12,38.80
11,-0.07,1.03,0.14,38.80
11,-0.07,1.01,0.10,47.44
11,-0.02,1.01,0.12,44.03
11,-0.02,0.98,0.12,44.03
11,-0.06,1.04,0.13,38.20
11,-0.06,1.04,0.12,43.59
11,-0.03,0.96,0.12,43.59
11,-0.03,1.00,0.13,39.27
11,-0.03,0.97,0.11,44.30
11,-0.02,1.03,0.11,44.22
11,-0.01,0.96,0.11,45.79
11,-0.01,1.04,0.14,43.82
11,-0.07,1.04,0.14,41.90
11,-0.02,0.98,0.11,41.90
11,-0.01,0.99,0.12,41.40
11,-0.01,0.99,0.12,38.37
11,-0.04,1.05,0.12,38.37
11,-0.02,0.96,0.12,44.60
11,-0.02,0.96,0.15,39.82
11,-0.05,1.02,0.15,39.39
11,-0.02,1.01,0.10,39.39
11,-0.02,1.04,0.12,38.37
11,-0.01,0.98,0.12,40.14
11,-0.07,1.04,0.14,40.14
11,-0.07,0.96,0.11,43.05
11,-0.02,0.96,0.12,37.83
11,-0.04,0.99,0.12,37.83
11,-0.02,1.04,0.11,38.19
11,-0.02,1.04,0.12,42.91
11,-0.01,0.96,0.12,42.91
11,-0.07,1.03,0.13,42.21
11,-0.07,1.06,0.11,38.45
11,-0.02,0.99,0.11,38.80
11,-0.02,0.97,0.11,45.85
11,-0.02,1.04,0.12,46.83
11,-0.06,1.04,0.12,42.22
11,-0.02,0.96,0.12,42.22
12,-0.03,1.00,0.06,41.12
12,-0.03,1.04,0.13,41.12
12,-0.03,0.95,0.11,39.16
12,-0.03,0.95,0.14,36.28
12,-0.07,1.03,0.14,36.28
12,-0.02,1.00,0.11,36.25
12,-0.02,0.98,0.13,45.17
12,-0.01,0.98,0.13,37.24
12,-0.06,1.05,0.13,37.24
12,-0.06,0.96,0.11,42.60
12,-0.02,0.96,0.07,39.64
12,-0.04,1.00,0.13,39.64
12,-0.02,1.03,0.11,41.11
12,-0.02,1.03,0.12,40.23
12,-0.02,0.96,0.12,40.23
12,-0.08,1.04,0.14,38.30
12,-0.08,1.03,0.10,42.64
12,-0.03,0.97,0.10,42.42
12,-0.02,0.99,0.12,42.42
12,-0.02,1.04,0.13,44.43
12,-0.04,1.04,0.13,40.58
12,-0.02,0.96,0.11,40.58
12,-0.06,1.02,0.14,39.65
12,-0.06,1.02,0.17,37.86
12,-0.02,1.00,0.11,37.86
12,-0.00,0.97,0.12,39.33
12,-0.00,0.97,0.14,39.93
12,-0.07,1.05,0.14,39.94
12,-0.02,0.96,0.12,38.37
12,-0.02,1.00,0.12,41.58
12,-0.04,1.00,0.12,42.95
12,-0.03,1.03,0.11,42.95
12,-0.03,0.96,0.11,36.62
12,-0.02,0.96,0.08,42.27
12,-0.07,1.03,0.14,42.27
12,-0.09,0.98,0.11,52.74
12,-0.03,0.98,0.12,40.55
12,-0.02,0.99,0.12,40.55
12,-0.05,1.04,0.11,42.58
12,-0.05,1.02,0.13,42.07
12,-0.03,0.96,0.13,41.68
12,-0.06,1.02,0.14,42.46
12,-0.06,1.01,0.11,43.32
12,-0.02,1.01,0.11,38.57
12,-0.01,0.97,0.11,38.57
12,-0.01,1.04,0.13,40.75
12,-0.07,1.04,0.17,40.38
12,-0.02,0.97,0.11,40.38
12,-0.03,0.99,0.12,38.32
12,-0.03,0.97,0.11,36.00
12,-0.03,1.03,0.11,36.41
12,-0.03,0.95,0.12,41.90
12,-0.03,1.02,0.14,42.49
12,-0.07,1.02,0.14,40.05
12,-0.02,0.98,0.12,40.05
12,-0.01,0.98,0.12,45.04
12,-0.01,0.98,0.07,45.25
12,-0.06,1.05,0.13,45.25
12,-0.03,0.96,0.12,39.46
12,-0.03,0.96,0.13,36.00
12,-0.05,1.02,0.13,36.00
12,-0.03,1.02,0.11,43.73
12,-0.03,1.03,0.12,42.21
12,-0.01,0.97,0.12,41.06
12,-0.07,1.03,0.13,41.06
12,-0.07,0.97,0.11,37.63
12,-0.02,0.97,0.12,36.56
12,-0.03,0.99,0.12,36.56
12,-0.04,1.04,0.12,40.04
12,-0.04,1.04,0.12,44.53
12,-0.02,0.95,0.12,44.53
12,-0.06,1.02,0.14,37.94
12,-0.06,1.00,0.10,39.36
12,-0.02,1.00,0.10,39.31
12,-0.02,0.99,0.11,37.74
12,-0.02,1.04,0.13,40.64
12,-0.06,1.04,0.13,43.93
12,-0.03,0.96,0.11,43.93
12,-0.04,1.01,0.13,36.54
12,-0.04,1.01,0.17,43.01
12,-0.02,1.03,0.11,43.01
12,-0.02,0.96,0.11,44.33
12,-0.02,0.96,0.13,44.80
12,-0.06,1.04,0.13,45.25
12,-0.02,0.97,0.11,35.85
12,-0.02,0.99,0.13,40.14
12,-0.02,0.99,0.13,36.78
12,-0.05,1.04,0.12,36.78
12,-0.05,0.95,0.12,43.90
12,-0.02,0.95,0.07,42.40
12,-0.06,1.01,0.14,42.40
12,-0.02,1.01,0.11,39.73
12,-0.02,1.01,0.11,41.88
12,-0.01,0.97,0.11,41.88
12,-0.06,1.04,0.12,42.44
12,-0.06,1.03,0.11,44.93
12,-0.03,0.97,0.11,45.31
12,-0.03,1.00,0.13,40.61
12,-0.03,1.02,0.11,42.00
12,-0.03,1.02,0.11,38.06
12,-0.02,0.96,0.12,38.06
12,-0.01,1.04,0.14,42.41
12,-0.07,1.04,0.16,38.53
12,-0.02,0.99,0.10,38.53
12,-0.02,0.98,0.13,44.05
12,-0.02,0.98,0.12,40.29
12,-0.05,1.05,0.12,39.99
12,-0.02,0.95,0.11,37.64
12,-0.02,1.01,0.13,43.95
12,-0.05,1.01,0.13,43.76
12,-0.02,1.01,0.11,43.76
12,-0.01,0.97,0.11,43.96
12,-0.01,0.97,0.08,38.52
12,-0.07,1.04,0.14,38.52
12,-0.03,0.96,0.11,44.55
12,-0.03,0.96,0.12,39.80
12,-0.02,1.00,0.12,39.24
12,-0.03,1.04,0.12,40.03
12,-0.03,1.02,0.12,40.85
12,-0.02,0.96,0.12,42.02
12,-0.06,1.03,0.14,42.02
12,-0.06,1.00,0.11,41.26
12,-0.02,1.00,0.11,41.53
12,-0.01,0.97,0.11,41.53
12,-0.05,1.04,0.13,40.36
12,-0.05,1.04,0.11,44.14
12,-0.02,0.95,0.11,44.14
12,-0.04,1.01,0.13,43.95
12,-0.04,1.02,0.11,43.45
12,-0.02,1.02,0.11,43.66
12,-0.02,0.96,0.10,42.88
12,-0.02,1.03,0.14,43.73
12,-0.07,1.03,0.14,45.57
12,-0.02,0.98,0.11,45.57
12,-0.02,0.99,0.13,41.09
12,-0.02,0.99,0.18,45.64
12,-0.04,1.04,0.12,45.64
12,-0.02,0.96,0.12,45.95
12,-0.02,0.96,0.14,38.82
12,-0.06,1.01,0.14,38.88
12,-0.02,1.00,0.11,38.88
12,-0.02,0.97,0.11,42.73
12,-0.01,0.97,0.11,38.98
12,-0.06,1.04,0.12,38.98
12,-0.06,0.97,0.11,41.49
12,-0.02,0.97,0.12,38.15
12,-0.04,1.00,0.12,38.15
12,-0.03,1.03,0.11,42.76
12,-0.03,1.03,0.13,40.51
12,-0.02,0.96,0.13,40.51
12,-0.07,1.04,0.13,41.13
12,-0.07,1.05,0.11,43.07
12,-0.02,0.99,0.11,43.24
12,-0.02,0.99,0.11,44.02
12,-0.02,1.04,0.13,43.21
12,-0.04,1.04,0.13,39.32
12,-0.02,0.96,0.11,39.32
12,-0.05,1.02,0.13,37.48
12,-0.05,1.02,0.11,35.75
12,-0.02,1.01,0.11,35.75
12,-0.00,0.97,0.11,39.01
12,-0.00,0.97,0.13,40.10
12,-0.07,1.04,0.13,40.01
12,-0.02,0.96,0.11,37.66
12,-0.02,0.99,0.11,40.84
12,-0.04,0.99,0.11,42.07
12,-0.03,1.03,0.11,42.07
12,-0.02,0.96,0.12,43.22
12,-0.02,0.96,0.08,38.48
12,-0.06,1.03,0.14,38.48
12,-0.02,0.98,0.11,46.03
12,-0.02,0.98,0.11,41.81
12,-0.02,0.99,0.11,42.02
12,-0.06,1.04,0.12,44.37
12,-0.06,1.02,0.12,43.00
12,-0.03,0.95,0.12,38.93
12,-0.05,1.02,0.12,38.93
12,-0.05,1.03,0.11,37.96
12,-0.03,1.03,0.12,38.93
12,-0.02,0.97,0.12,38.93
12,-0.01,1.04,0.13,39.58
12,-0.07,1.04,0.11,46.31
12,-0.02,0.97,0.11,46.31
12,-0.03,1.00,0.13,42.93
12,-0.03,0.97,0.11,38.57
12,-0.05,1.04,0.11,38.34
12,-0.02,0.96,0.12,41.48
12,-0.02,1.03,0.13,36.32
12,-0.07,1.03,0.13,43.32
12,-0.02,1.00,0.11,43.32
12,-0.00,0.98,0.13,44.71
12,-0.00,0.98,0.14,42.45
12,-0.06,1.04,0.14,42.45
12,-0.03,0.96,0.11,44.95
12,-0.03,0.96,0.14,43.34
12,-0.04,1.01,0.14,43.56
12,-0.02,1.02,0.12,42.00
12,-0.02,1.03,0.12,38.88
12,-0.02,0.97,0.12,41.46
12,-0.06,1.04,0.14,41.46
12,-0.06,0.98,0.12,43.13
12,-0.03,0.98,0.12,44.53
12,-0.02,0.99,0.12,44.53
12,-0.04,1.05,0.12,37.99
12,-0.04,1.05,0.12,40.37
12,-0.02,0.96,0.12,40.37
12,-0.06,1.02,0.13,45.71
12,-0.06,1.01,0.12,38.78
12,-0.02,1.01,0.12,38.51
12,-0.02,0.96,0.13,44.78
12,-0.02,1.04,0.13,38.60
12,-0.06,1.04,0.13,36.47
12,-0.03,0.96,0.11,36.47
12,-0.03,1.00,0.13,39.02
12,-0.03,1.00,0.18,38.61
12,-0.02,1.03,0.11,38.61
12,-0.02,0.97,0.11,42.82
12,-0.02,0.96,0.14,43.51
12,-0.07,1.02,0.14,43.18
12,-0.03,0.98,0.10,46.31
12,-0.03,0.99,0.12,41.47
12,-0.02,0.99,0.12,39.93
12,-0.05,1.04,0.13,39.93
12,-0.03,0.96,0.11,47.04
12,-0.03,0.96,0.07,44.90
12,-0.05,1.02,0.13,44.90
12,-0.03,1.01,0.12,42.69
12,-0.03,1.01,0.11,40.01
12,-0.01,0.97,0.11,40.01
12,-0.06,1.04,0.13,43.33
12,-0.06,1.03,0.10,38.10
12,-0.02,0.97,0.10,43.68
12,-0.03,1.00,0.13,43.68
13,-0.06,1.04,0.12,42.63
13,-0.02,0.96,0.12,42.63
13,-0.04,1.01,0.13,42.31
13,-0.04,1.01,0.18,42.07
13,-0.03,1.02,0.11,42.07
13,-0.02,0.97,0.12,45.52
13,-0.02,0.97,0.13,35.96
13,-0.06,1.03,0.13,35.94
13,-0.02,0.97,0.11,42.20
13,-0.02,0.99,0.12,43.63
13,-0.03,0.99,0.12,41.11
13,-0.03,1.04,0.11,41.11
13,-0.03,0.96,0.12,42.01
13,-0.02,0.96,0.07,42.06
13,-0.06,1.02,0.13,42.06
13,-0.02,0.99,0.11,43.02
13,-0.02,0.99,0.11,35.21
13,-0.00,0.98,0.11,35.21
13,-0.06,1.04,0.13,40.17
13,-0.06,1.02,0.11,43.65
13,-0.03,0.96,0.11,43.35
13,-0.04,1.00,0.13,44.13
13,-0.04,1.03,0.12,46.80
13,-0.03,1.03,0.12,46.45
13,-0.01,0.95,0.11,46.45
13,-0.01,1.04,0.13,43.28
13,-0.07,1.04,0.11,41.42
13,-0.02,0.98,0.11,41.42
13,-0.02,0.99,0.12,43.48
13,-0.02,0.98,0.12,37.27
13,-0.04,1.04,0.12,37.39
13,-0.03,0.96,0.12,39.74
13,-0.03,1.02,0.13,42.32
13,-0.06,1.02,0.13,47.33
13,-0.02,1.01,0.10,47.33
13,-0.01,0.98,0.11,50.59
13,-0.01,0.98,0.07,43.97
13,-0.07,1.03,0.13,43.97
13,-0.03,0.96,0.12,40.62
13,-0.03,0.96,0.12,36.50
13,-0.03,1.00,0.12,36.50
13,-0.04,1.03,0.11,37.55
13,-0.04,1.02,0.12,40.78
13,-0.03,0.95,0.12,43.64
13,-0.07,1.03,0.13,43.64
13,-0.07,0.99,0.11,41.96
13,-0.02,0.99,0.06,40.98
13,-0.01,0.99,0.13,40.98
13,-0.05,1.04,0.14,44.16
13,-0.05,1.04,0.11,46.04
13,-0.03,0.96,0.11,46.04
13,-0.05,1.01,0.13,39.14
13,-0.05,1.01,0.12,43.90
13,-0.02,1.01,0.12,44.18
13,-0.02,0.97,0.11,37.91
13,-0.02,1.03,0.14,42.19
13,-0.07,1.03,0.14,41.27
13,-0.02,0.97,0.12,41.27
13,-0.04,1.00,0.12,34.86
13,-0.04,1.00,0.11,44.10
13,-0.03,1.03,0.11,44.10
13,-0.03,0.96,0.13,41.38
13,-0.03,0.96,0.13,42.99
13,-0.06,1.02,0.13,42.65
13,-0.02,0.99,0.11,45.00
13,-0.02,0.99,0.12,44.31
13,-0.01,0.99,0.12,38.22
13,-0.06,1.05,0.12,38.22
13,-0.06,0.96,0.12,42.54
13,-0.03,0.96,0.06,43.55
13,-0.04,1.01,0.13,43.55
13,-0.02,1.03,0.11,37.35
13,-0.02,1.03,0.11,41.51
13,-0.01,0.97,0.11,41.51
13,-0.08,1.04,0.13,41.69
13,-0.08,1.04,0.11,40.66
13,-0.02,0.97,0.11,40.32
13,-0.02,0.99,0.12,35.62
13,-0.02,1.03,0.13,41.25
13,-0.04,1.03,0.13,40.96
13,-0.02,0.95,0.12,40.96
13,-0.06,1.02,0.14,41.01
13,-0.06,1.02,0.17,39.85
13,-0.02,1.01,0.11,39.85
13,-0.02,0.98,0.12,44.57
13,-0.02,0.98,0.14,41.23
13,-0.05,1.04,0.14,40.83
13,-0.03,0.96,0.11,40.05
13,-0.03,1.00,0.13,39.96
13,-0.03,1.00,0.13,38.89
13,-0.03,1.02,0.11,38.89
13,-0.03,0.96,0.12,37.12
13,-0.03,0.96,0.08,37.83
13,-0.07,1.03,0.14,37.83
13,-0.02,0.98,0.12,38.40
13,-0.02,0.98,0.13,35.35
13,-0.03,0.98,0.13,35.35
13,-0.05,1.03,0.14,42.24
13,-0.05,1.01,0.12,46.69
13,-0.02,0.95,0.12,40.67
13,-0.06,1.01,0.13,40.67
13,-0.06,1.01,0.10,39.06
13,-0.03,1.01,0.12,41.10
13,-0.02,0.97,0.12,41.10
13,-0.02,1.04,0.14,44.65
13,-0.08,1.04,0.12,43.95
13,-0.02,0.96,0.12,43.95
13,-0.02,1.00,0.13,43.17
13,-0.02,0.97,0.12,43.04
13,-0.03,1.03,0.12,43.50
13,-0.02,0.96,0.12,45.85
13,-0.02,1.03,0.15,41.11
13,-0.06,1.03,0.15,43.64
13,-0.02,1.00,0.11,43.64
13,-0.02,0.98,0.12,46.44
13,-0.02,0.98,0.12,41.13
13,-0.05,1.04,0.12,41.13
13,-0.03,0.96,0.12,43.92
13,-0.03,0.96,0.12,42.75
13,-0.05,1.01,0.12,42.35
13,-0.03,1.03,0.11,36.87
13,-0.03,1.04,0.11,42.44
13,-0.01,0.97,0.11,40.69
13,-0.08,1.03,0.13,40.69
13,-0.08,0.98,0.12,38.14
13,-0.02,0.98,0.06,47.11
13,-0.03,0.99,0.13,47.11
13,-0.03,1.03,0.12,42.10
13,-0.03,1.03,0.11,45.50
13,-0.01,0.96,0.11,45.50
13,-0.06,1.03,0.13,40.42
13,-0.06,1.06,0.10,44.03
13,-0.03,0.99,0.10,44.52
13,-0.01,0.98,0.12,37.47
13,-0.01,1.04,0.13,39.68
13,-0.06,1.04,0.13,44.26
13,-0.03,0.96,0.10,44.26
13,-0.04,1.00,0.12,38.78
13,-0.04,1.00,0.12,40.93
13,-0.02,1.01,0.12,40.93
13,-0.02,0.96,0.12,38.43
13,-0.02,0.97,0.14,42.45
13,-0.08,1.03,0.14,42.77
13,-0.03,0.98,0.11,40.42
13,-0.03,1.00,0.13,39.64
13,-0.03,1.00,0.13,38.33
13,-0.04,1.03,0.13,38.33
13,-0.03,0.96,0.12,38.20
13,-0.03,0.96,0.07,41.01
13,-0.06,1.02,0.13,41.01
13,-0.02,1.00,0.10,41.68
13,-0.02,1.00,0.11,45.88
13,-0.01,0.98,0.11,45.88
13,-0.06,1.03,0.13,41.76
13,-0.06,1.02,0.11,48.30
13,-0.02,0.96,0.11,48.33
13,-0.03,1.00,0.13,41.28
13,-0.03,1.04,0.11,53.66
13,-0.03,1.04,0.12,44.29
13,-0.02,0.97,0.12,44.29
13,-0.06,1.02,0.15,37.59
13,-0.06,1.02,0.11,43.35
13,-0.02,0.99,0.11,43.35
13,-0.02,0.99,0.11,47.39
13,-0.02,0.98,0.12,35.36
13,-0.05,1.04,0.12,35.18
13,-0.03,0.96,0.12,43.80
13,-0.03,1.02,0.12,38.40
13,-0.05,1.02,0.12,40.92
13,-0.02,1.01,0.10,40.92
13,-0.02,0.98,0.11,40.74
13,-0.02,0.98,0.08,42.95
13,-0.06,1.03,0.14,42.95
13,-0.03,0.97,0.10,40.31
13,-0.03,0.97,0.11,46.18
13,-0.03,1.00,0.11,46.78
13,-0.04,1.03,0.12,41.29
13,-0.04,1.02,0.12,38.37
13,-0.02,0.96,0.12,45.16
13,-0.06,1.02,0.13,45.16
13,-0.06,1.00,0.10,45.59
13,-0.02,1.00,0.12,38.03
13,-0.01,0.99,0.12,38.03
13,-0.05,1.04,0.13,43.00
13,-0.05,1.04,0.11,39.77
13,-0.03,0.96,0.11,39.77
13,-0.05,1.01,0.12,41.87
13,-0.05,1.01,0.10,42.57
13,-0.03,1.01,0.10,42.61
13,-0.01,0.97,0.11,40.26
13,-0.01,1.04,0.14,41.08
13,-0.07,1.04,0.14,46.18
13,-0.02,0.98,0.11,46.18
13,-0.02,1.00,0.12,43.83
13,-0.02,1.00,0.12,42.05
13,-0.04,1.04,0.12,42.05
13,-0.03,0.96,0.12,37.98
13,-0.03,0.95,0.13,44.49
13,-0.07,1.01,0.13,44.09
13,-0.01,1.01,0.10,43.30
13,-0.01,0.97,0.12,43.90
13,-0.02,0.97,0.12,42.77
13,-0.06,1.03,0.13,42.77
13,-0.02,0.97,0.11,42.78
13,-0.02,0.97,0.06,46.75
13,-0.04,1.00,0.13,46.75
13,-0.03,1.02,0.11,35.38
13,-0.03,1.02,0.12,39.48
13,-0.01,0.97,0.12,39.48
13,-0.06,1.03,0.13,42.41
13,-0.06,1.05,0.11,36.89
13,-0.02,0.98,0.11,39.68
13,-0.02,0.99,0.12,39.68
13,-0.02,1.03,0.13,40.53
13,-0.05,1.03,0.18,40.28
13,-0.03,0.96,0.12,40.28
13,-0.05,1.01,0.14,38.38
13,-0.05,1.01,0.11,37.64
13,-0.02,1.00,0.11,37.64
13,-0.02,0.98,0.11,42.08
13,-0.02,0.97,0.13,43.65
13,-0.07,1.03,0.13,43.13
13,-0.03,0.97,0.12,42.35
13,-0.03,1.01,0.12,41.90
13,-0.03,1.01,0.12,39.47
13,-0.03,1.03,0.12,39.47
13,-0.01,0.96,0.11,38.68
13,-0.01,0.96,0.07,44.35
13,-0.06,1.03,0.13,44.35
13,-0.02,0.99,0.11,42.74
13,-0.02,0.99,0.11,43.50
13,-0.02,0.99,0.11,43.79
13,-0.04,1.03,0.12,43.01
14,-0.04,0.98,0.12,45.17
14,-0.03,1.00,0.12,42.82
14,-0.03,1.04,0.11,40.87
14,-0.03,1.04,0.12,34.94
14,-0.02,0.96,0.12,34.94
14,-0.06,1.02,0.13,42.59
14,-0.06,1.02,0.11,38.47
14,-0.03,0.99,0.11,38.47
14,-0.01,0.98,0.12,40.62
14,-0.01,0.98,0.12,39.42
14,-0.06,1.04,0.12,39.86
14,-0.02,0.96,0.12,42.99
14,-0.02,1.01,0.14,36.83
14,-0.05,1.01,0.14,39.83
14,-0.03,1.02,0.10,39.83
14,-0.02,0.96,0.12,40.71
14,-0.02,0.96,0.07,38.01
14,-0.07,1.03,0.13,38.01
14,-0.02,0.98,0.11,45.73
14,-0.02,0.98,0.13,41.33
14,-0.03,1.00,0.13,40.93
14,-0.04,1.04,0.12,43.28
14,-0.04,1.01,0.11,37.69
14,-0.02,0.95,0.11,41.37
14,-0.05,1.02,0.13,41.37
14,-0.05,1.00,0.12,46.41
14,-0.02,1.00,0.12,42.79
14,-0.02,0.97,0.12,42.79
14,-0.00,1.04,0.12,39.23
14,-0.07,1.04,0.11,33.96
14,-0.02,0.97,0.11,33.96
14,-0.03,1.00,0.12,41.49
14,-0.03,1.02,0.12,41.29
14,-0.03,1.02,0.12,40.81
14,-0.01,0.97,0.12,40.03
14,-0.01,1.03,0.14,37.36
14,-0.07,1.03,0.14,39.63
14,-0.02,0.99,0.11,39.63
14,-0.02,0.99,0.12,39.94
14,-0.02,0.99,0.07,38.48
14,-0.05,1.04,0.13,38.48
14,-0.03,0.97,0.11,38.08
14,-0.03,0.95,0.14,36.84
14,-0.05,1.01,0.14,36.91
14,-0.03,1.00,0.11,43.18
14,-0.03,0.98,0.12,43.26
14,-0.01,0.98,0.12,39.97
14,-0.07,1.04,0.14,39.97
14,-0.09,0.97,0.11,42.87
14,-0.03,0.97,0.12,44.89
14,-0.03,1.01,0.12,44.89
14,-0.04,1.03,0.11,36.99
14,-0.04,1.03,0.12,41.15
14,-0.01,0.97,0.12,40.97
14,-0.06,1.03,0.13,41.75
14,-0.06,1.06,0.11,42.53
14,-0.02,1.00,0.11,38.11
14,-0.02,0.99,0.13,38.11
14,-0.02,1.04,0.13,35.15
14,-0.05,1.04,0.18,36.73
14,-0.03,0.96,0.12,36.73
14,-0.05,1.01,0.13,40.07
14,-0.05,1.01,0.12,46.92
14,-0.02,1.02,0.12,46.92
14,-0.01,0.97,0.12,39.38
14,-0.01,0.97,0.13,45.24
14,-0.06,1.03,0.13,45.26
14,-0.03,0.97,0.11,46.04
14,-0.03,0.99,0.13,40.41
14,-0.03,0.99,0.13,40.24
14,-0.04,1.03,0.12,40.24
14,-0.02,0.97,0.12,41.43
14,-0.02,0.97,0.07,42.29
14,-0.05,1.03,0.13,42.29
14,-0.02,1.00,0.11,41.68
14,-0.02,1.00,0.12,40.06
14,-0.02,0.99,0.12,40.62
14,-0.05,1.04,0.11,42.97
14,-0.05,1.03,0.11,42.24
14,-0.03,0.97,0.11,39.45
14,-0.04,1.01,0.13,39.45
14,-0.04,1.03,0.11,39.03
14,-0.03,1.03,0.12,45.33
14,-0.01,0.97,0.12,45.33
14,-0.06,1.04,0.13,45.81
14,-0.06,1.04,0.10,37.51
14,-0.02,0.98,0.10,37.51
14,-0.02,0.99,0.12,43.33
14,-0.02,0.97,0.12,43.61
14,-0.04,1.04,0.12,43.51
14,-0.02,0.96,0.13,44.29
14,-0.02,1.02,0.13,41.27
14,-0.06,1.02,0.13,41.42
14,-0.02,1.00,0.11,41.42
14,-0.02,0.98,0.12,42.69
14,-0.02,0.98,0.13,44.13
14,-0.06,1.04,0.13,44.13
14,-0.04,0.97,0.11,44.00
14,-0.04,0.94,0.13,40.27
14,-0.03,1.00,0.13,39.99
14,-0.04,1.03,0.12,36.07
14,-0.04,0.97,0.12,45.82
14,-0.02,0.97,0.12,41.36
14,-0.06,1.02,0.13,41.36
14,-0.03,0.99,0.11,40.84
14,-0.03,0.99,0.12,46.13
14,-0.03,0.98,0.12,46.13
14,-0.05,1.03,0.12,43.19
14,-0.05,1.03,0.12,44.50
14,-0.02,0.97,0.12,44.34
14,-0.04,1.01,0.13,41.99
14,-0.04,1.02,0.11,41.73
14,-0.02,1.02,0.11,38.21
14,-0.02,0.98,0.12,38.21
14,-0.02,1.03,0.14,35.86
14,-0.06,1.03,0.18,39.56
14,-0.02,0.97,0.11,39.56
14,-0.03,1.00,0.11,42.81
14,-0.03,1.00,0.13,48.36
14,-0.04,1.03,0.13,48.36
14,-0.02,0.97,0.10,36.82
14,-0.02,0.97,0.13,43.15
14,-0.06,1.03,0.13,43.57
14,-0.02,0.99,0.11,41.22
14,-0.02,0.99,0.11,44.90
14,-0.01,0.99,0.11,45.33
14,-0.05,1.03,0.12,45.33
14,-0.02,0.97,0.12,43.39
14,-0.02,0.97,0.12,42.49
14,-0.04,1.01,0.12,42.49
14,-0.02,1.01,0.11,41.40
14,-0.02,1.01,0.11,37.84
14,-0.01,0.97,0.11,37.83
14,-0.06,1.02,0.14,37.04
14,-0.06,1.05,0.11,41.40
14,-0.02,0.98,0.11,42.88
14,-0.02,1.00,0.11,42.88
14,-0.03,1.04,0.12,54.11
14,-0.03,1.04,0.12,43.78
14,-0.03,0.96,0.12,43.78
14,-0.06,1.01,0.13,41.68
14,-0.06,1.01,0.11,43.80
14,-0.03,1.00,0.11,43.80
14,-0.01,0.98,0.12,40.18
14,-0.01,0.98,0.13,40.18
14,-0.05,1.05,0.13,40.25
14,-0.02,0.96,0.12,41.82
14,-0.02,1.01,0.13,41.98
14,-0.05,1.01,0.13,37.02
14,-0.03,1.02,0.11,37.02
14,-0.02,0.98,0.11,40.96
14,-0.02,0.98,0.12,38.99
14,-0.07,1.03,0.12,38.99
14,-0.03,0.98,0.11,46.18
14,-0.03,0.98,0.13,41.20
14,-0.02,0.98,0.13,41.28
14,-0.05,1.03,0.12,44.42
14,-0.05,0.96,0.12,41.47
14,-0.02,0.96,0.12,41.22
14,-0.06,1.02,0.14,41.22
14,-0.02,1.01,0.12,37.20
14,-0.02,1.01,0.11,44.50
14,-0.01,0.97,0.11,44.50
14,-0.06,1.03,0.13,43.39
14,-0.06,1.03,0.12,42.22
14,-0.03,0.98,0.12,41.97
14,-0.04,1.00,0.12,40.40
14,-0.04,0.96,0.11,39.84
14,-0.03,1.02,0.11,39.35
14,-0.02,0.97,0.12,39.35
14,-0.02,1.03,0.12,41.63
14,-0.05,1.03,0.12,38.42
14,-0.02,0.98,0.12,38.42
14,-0.03,0.99,0.12,38.82
14,-0.03,0.99,0.12,44.06
14,-0.05,1.04,0.12,44.06
14,-0.03,0.97,0.11,44.66
14,-0.03,0.94,0.13,38.27
14,-0.06,1.00,0.13,38.25
14,-0.02,1.02,0.11,43.73
14,-0.02,0.97,0.12,43.18
14,-0.02,0.97,0.12,43.09
14,-0.06,1.04,0.12,43.09
14,-0.09,0.97,0.11,43.18
14,-0.03,0.97,0.11,38.16
14,-0.02,1.00,0.11,38.16
14,-0.04,1.04,0.13,40.70
14,-0.04,1.04,0.11,38.68
14,-0.02,0.96,0.11,38.63
14,-0.06,1.02,0.14,48.81
14,-0.06,1.01,0.11,44.05
14,-0.02,1.01,0.11,45.80
14,-0.02,0.98,0.11,45.80
14,-0.02,1.04,0.12,43.87
14,-0.05,1.04,0.11,37.02
14,-0.03,0.97,0.11,37.02
14,-0.03,1.00,0.12,39.99
14,-0.03,1.00,0.11,38.11
14,-0.03,1.02,0.11,38.11
14,-0.02,0.96,0.11,40.41
14,-0.02,0.97,0.14,45.75
14,-0.06,1.03,0.14,45.73
14,-0.01,0.98,0.11,39.47
14,-0.01,0.99,0.12,39.46
14,-0.03,0.99,0.12,42.06
14,-0.05,1.03,0.13,42.06
14,-0.01,0.97,0.10,44.13
14,-0.01,0.97,0.07,39.58
14,-0.05,1.02,0.13,39.58
14,-0.03,1.00,0.12,42.05
14,-0.03,1.03,0.11,44.40
14,-0.02,0.97,0.11,44.19
14,-0.06,1.03,0.13,46.54
14,-0.06,0.97,0.11,41.30
14,-0.03,0.97,0.11,41.52
14,-0.04,1.00,0.13,41.52
14,-0.03,1.02,0.13,40.95
14,-0.03,1.02,0.19,44.17
14,-0.02,0.97,0.12,44.17
14,-0.05,1.03,0.13,40.36
14,-0.05,1.03,0.12,39.46
14,-0.03,0.99,0.12,39.86
14,-0.03,0.99,0.13,40.64
14,-0.03,0.97,0.13,39.41
14,-0.05,1.03,0.13,43.91
14,-0.02,0.97,0.12,43.91
14,-0.02,1.02,0.14,37.00
14,-0.05,1.02,0.17,40.51
14,-0.02,1.02,0.10,40.51
14,-0.01,0.98,0.11,44.73
14,-0.01,0.98,0.14,43.81
14,-0.06,1.03,0.14,43.81
14,-0.02,0.98,0.10,46.20
15,-0.01,0.99,0.11,41.16
15,-0.05,1.04,0.13,45.26
15,-0.05,1.03,0.11,40.34
15,-0.03,0.97,0.11,44.14
15,-0.05,1.02,0.12,44.14
15,-0.05,1.01,0.12,49.15
15,-0.03,1.01,0.12,42.90
15,-0.02,0.97,0.12,42.90
15,-0.06,1.03,0.14,44.19
15,-0.06,1.03,0.11,38.52
15,-0.02,0.98,0.11,38.52
15,-0.03,1.00,0.12,39.96
15,-0.03,1.03,0.11,46.89
15,-0.03,1.03,0.11,46.18
15,-0.02,0.96,0.12,44.61
15,-0.02,1.01,0.14,42.19
15,-0.06,1.01,0.14,44.40
15,-0.02,1.00,0.11,44.40
15,-0.01,0.98,0.12,47.39
15,-0.01,0.98,0.06,41.81
15,-0.05,1.03,0.13,41.81
15,-0.03,0.97,0.11,41.74
15,-0.03,0.97,0.14,45.44
15,-0.04,1.01,0.14,46.13
15,-0.03,1.02,0.12,41.43
15,-0.03,0.97,0.11,49.70
15,-0.02,0.97,0.11,43.65
15,-0.07,1.03,0.14,43.65
15,-0.09,0.98,0.10,44.46
15,-0.03,0.98,0.11,40.44
15,-0.03,0.99,0.11,40.44
15,-0.04,1.03,0.13,44.68
15,-0.04,1.03,0.11,44.57
15,-0.02,0.95,0.11,44.57
15,-0.06,1.02,0.14,39.70
15,-0.06,1.00,0.11,44.93
15,-0.02,1.00,0.11,37.60
15,-0.01,0.98,0.12,37.60
15,-0.01,1.03,0.13,40.32
15,-0.05,1.03,0.17,41.02
15,-0.02,0.97,0.11,41.02
15,-0.03,1.00,0.13,37.11
15,-0.03,1.00,0.12,36.79
15,-0.03,1.02,0.12,36.79
15,-0.02,0.98,0.11,37.28
15,-0.02,0.96,0.13,37.78
15,-0.06,1.02,0.13,37.87
15,-0.02,0.99,0.11,37.09
15,-0.02,0.99,0.11,39.09
15,-0.02,0.99,0.11,39.36
15,-0.05,1.04,0.12,39.36
15,-0.03,0.97,0.10,39.62
15,-0.03,0.97,0.07,37.82
15,-0.04,1.01,0.13,37.82
15,-0.03,1.02,0.11,39.17
15,-0.03,1.02,0.11,40.28
15,-0.02,0.97,0.11,40.34
15,-0.05,1.04,0.12,43.48
15,-0.05,0.97,0.12,42.53
15,-0.02,0.97,0.12,45.07
15,-0.04,1.00,0.13,45.07
15,-0.05,1.02,0.12,44.37
15,-0.05,1.02,0.12,38.94
15,-0.02,0.97,0.12,38.94
15,-0.06,1.02,0.13,42.61
15,-0.06,1.02,0.11,41.96
15,-0.02,1.00,0.11,41.96
15,-0.02,1.00,0.12,39.40
15,-0.02,0.97,0.13,37.56
15,-0.05,1.04,0.13,37.77
15,-0.03,0.96,0.11,40.91
15,-0.03,1.01,0.12,41.18
15,-0.04,1.01,0.12,41.96
15,-0.03,1.02,0.12,41.96
15,-0.02,0.97,0.12,41.19
15,-0.02,0.97,0.14,36.73
15,-0.06,1.03,0.14,36.73
15,-0.03,0.98,0.11,36.96
15,-0.03,0.99,0.12,44.77
15,-0.04,0.99,0.12,44.81
15,-0.03,1.03,0.12,41.67
15,-0.03,0.96,0.11,41.58
15,-0.03,0.96,0.11,40.40
15,-0.06,1.02,0.13,40.40
15,-0.03,1.00,0.11,36.95
15,-0.03,1.00,0.06,45.23
15,-0.01,0.99,0.13,45.23
15,-0.04,1.03,0.13,39.03
15,-0.04,1.03,0.12,42.04
15,-0.02,0.98,0.12,41.67
15,-0.03,1.00,0.13,41.67
15,-0.03,1.02,0.12,41.96
15,-0.03,1.02,0.12,40.73
15,-0.02,0.97,0.12,40.73
15,-0.02,1.03,0.14,41.96
15,-0.06,1.03,0.18,40.89
15,-0.02,0.99,0.12,40.89
15,-0.03,0.99,0.12,50.50
15,-0.03,0.99,0.13,41.51
15,-0.04,1.03,0.13,41.51
15,-0.03,0.96,0.11,43.13
15,-0.03,0.95,0.14,38.75
15,-0.05,1.02,0.14,38.75
15,-0.03,1.00,0.12,45.80
15,-0.03,0.97,0.12,38.69
15,-0.01,0.97,0.12,40.76
15,-0.06,1.03,0.14,40.76
15,-0.03,0.97,0.11,39.13
15,-0.03,0.97,0.07,44.07
15,-0.03,1.00,0.13,44.07
15,-0.04,1.02,0.11,42.63
15,-0.04,1.02,0.11,44.90
15,-0.02,0.96,0.11,44.83
15,-0.06,1.02,0.13,45.62
15,-0.06,1.06,0.12,38.61
15,-0.02,1.00,0.12,43.20
15,-0.02,0.99,0.12,43.20
15,-0.04,1.03,0.13,41.61
15,-0.04,1.03,0.13,40.51
15,-0.03,0.98,0.13,40.51
15,-0.05,1.01,0.12,38.79
15,-0.05,1.01,0.11,40.39
15,-0.03,1.01,0.11,40.39
15,-0.02,0.97,0.11,49.16
15,-0.02,0.97,0.12,45.45
15,-0.05,1.03,0.12,45.65
15,-0.04,0.98,0.11,46.43
15,-0.04,1.00,0.12,35.66
15,-0.03,1.00,0.11,46.31
15,-0.04,1.03,0.11,46.31
15,-0.01,0.97,0.12,46.20
15,-0.01,0.97,0.14,48.83
15,-0.06,1.02,0.14,48.83
15,-0.02,0.99,0.11,43.41
15,-0.02,0.99,0.12,40.21
15,-0.02,0.99,0.12,40.66
15,-0.05,1.03,0.13,40.66
15,-0.05,0.97,0.11,44.13
15,-0.03,0.97,0.11,45.00
15,-0.04,1.01,0.13,45.00
15,-0.03,1.01,0.11,44.73
15,-0.03,1.01,0.12,40.05
15,-0.01,0.96,0.12,40.05
15,-0.06,1.04,0.13,39.72
15,-0.06,1.04,0.12,44.29
15,-0.02,0.98,0.12,44.40
15,-0.02,0.99,0.12,36.57
15,-0.02,0.96,0.13,39.97
15,-0.04,1.02,0.13,41.18
15,-0.03,0.97,0.11,41.18
15,-0.03,1.02,0.14,40.99
15,-0.06,1.02,0.17,41.68
15,-0.02,0.99,0.11,41.68
15,-0.02,0.98,0.12,41.60
15,-0.02,0.98,0.13,41.32
15,-0.06,1.04,0.13,41.32
15,-0.02,0.98,0.12,44.36
15,-0.02,0.94,0.12,36.65
15,-0.04,1.01,0.12,36.03
15,-0.04,1.02,0.12,41.51
15,-0.04,0.97,0.11,45.10
15,-0.02,0.97,0.11,43.36
15,-0.06,1.03,0.12,43.36
15,-0.03,0.98,0.12,37.48
15,-0.03,0.98,0.11,39.37
15,-0.02,0.99,0.11,39.37
15,-0.05,1.03,0.13,44.65
15,-0.05,1.03,0.11,38.33
15,-0.02,0.97,0.11,39.02
15,-0.05,1.01,0.13,41.37
15,-0.05,1.01,0.12,45.90
15,-0.03,1.01,0.12,39.40
15,-0.01,0.98,0.12,39.40
15,-0.05,1.03,0.13,43.60
15,-0.05,1.03,0.17,39.00
15,-0.03,0.98,0.11,39.00
15,-0.04,1.01,0.12,40.04
15,-0.04,1.01,0.11,43.98
15,-0.04,1.03,0.11,43.98
15,-0.01,0.97,0.11,40.99
15,-0.01,0.96,0.12,46.12
15,-0.05,1.02,0.12,43.21
15,-0.03,1.00,0.11,43.21
15,-0.03,0.98,0.11,42.27
15,-0.01,0.98,0.07,44.38
15,-0.05,1.03,0.13,44.38
15,-0.02,0.97,0.11,39.05
15,-0.02,0.97,0.13,39.15
15,-0.04,1.01,0.13,39.15
15,-0.03,1.01,0.11,39.34
15,-0.03,1.03,0.13,44.48
15,-0.02,0.97,0.13,44.44
15,-0.06,1.03,0.14,46.00
15,-0.06,0.98,0.11,42.52
15,-0.03,0.98,0.11,39.10
15,-0.03,1.00,0.11,39.10
15,-0.03,1.03,0.12,41.56
15,-0.03,1.03,0.12,42.27
15,-0.02,0.97,0.12,42.27
15,-0.05,1.03,0.12,41.40
15,-0.05,1.03,0.11,36.87
15,-0.02,1.00,0.11,36.86
15,-0.02,0.99,0.12,41.56
15,-0.02,0.97,0.12,38.97
15,-0.05,1.03,0.12,38.83
15,-0.02,0.97,0.12,38.83
15,-0.04,1.01,0.13,40.85
15,-0.04,1.01,0.17,44.64
15,-0.03,1.01,0.11,44.64
15,-0.02,0.97,0.12,39.87
15,-0.02,0.97,0.13,36.39
15,-0.06,1.02,0.13,36.39
15,-0.03,0.98,0.11,39.00
15,-0.03,0.99,0.12,41.12
15,-0.02,0.99,0.12,41.10
15,-0.04,1.03,0.13,45.80
15,-0.04,0.97,0.12,43.25
15,-0.02,0.97,0.07,38.53
15,-0.06,1.01,0.14,38.53
15,-0.03,1.01,0.11,36.38
15,-0.03,1.01,0.12,39.20
15,-0.02,0.98,0.12,39.20
15,-0.05,1.03,0.13,47.30
15,-0.05,1.03,0.12,43.81
15,-0.04,0.97,0.12,43.87
15,-0.04,1.00,0.12,40.73
15,-0.04,1.02,0.11,44.83
15,-0.03,1.02,0.11,43.13
15,-0.02,0.97,0.13,43.13
15,-0.06,1.03,0.14,40.42
15,-0.06,1.03,0.17,38.83
15,-0.02,0.99,0.11,38.83
15,-0.02,0.99,0.12,41.59
16,-0.06,1.03,0.13,42.15
16,-0.03,0.98,0.12,43.97
16,-0.03,1.00,0.13,37.70
16,-0.03,1.00,0.13,37.90
16,-0.03,1.02,0.12,38.68
16,-0.03,0.97,0.10,43.90
16,-0.01,0.97,0.10,38.71
16,-0.06,1.02,0.13,38.71
16,-0.02,0.99,0.10,39.62
16,-0.02,0.99,0.12,42.96
16,-0.02,0.99,0.12,42.96
16,-0.04,1.02,0.12,38.07
16,-0.04,1.04,0.11,38.43
16,-0.02,0.97,0.11,38.74
16,-0.04,1.00,0.13,45.79
16,-0.04,1.02,0.12,37.78
16,-0.02,1.02,0.12,41.68
16,-0.02,0.98,0.11,41.68
16,-0.05,1.03,0.12,38.29
16,-0.05,1.03,0.11,42.82
16,-0.03,0.98,0.11,42.82
16,-0.02,1.00,0.12,40.15
16,-0.02,1.00,0.12,44.08
16,-0.05,1.03,0.12,43.82
16,-0.03,0.97,0.12,40.69
16,-0.03,0.95,0.14,41.25
16,-0.06,1.01,0.14,41.06
16,-0.02,1.00,0.12,41.06
16,-0.02,0.98,0.12,38.39
16,-0.02,0.98,0.07,37.39
16,-0.05,1.03,0.13,37.39
16,-0.02,0.96,0.11,35.72
16,-0.02,0.96,0.12,42.42
16,-0.03,1.02,0.12,42.42
16,-0.03,1.02,0.12,42.71
16,-0.03,1.04,0.11,40.63
16,-0.02,0.98,0.11,40.14
16,-0.06,1.03,0.14,39.36
16,-0.06,0.99,0.12,40.20
16,-0.02,0.99,0.12,40.68
16,-0.02,1.00,0.12,40.68
16,-0.03,1.03,0.13,45.90
16,-0.03,1.03,0.17,43.81
16,-0.03,0.97,0.10,43.81
16,-0.06,1.02,0.13,36.06
16,-0.06,1.02,0.13,41.18
16,-0.03,1.01,0.13,41.03
16,-0.01,0.98,0.11,41.81
16,-0.01,0.97,0.14,40.02
16,-0.06,1.03,0.14,43.12
16,-0.02,0.98,0.12,43.12
16,-0.02,0.99,0.13,40.69
16,-0.03,0.99,0.18,40.80
16,-0.03,1.02,0.12,40.80
16,-0.02,0.97,0.12,45.05
16,-0.02,0.97,0.14,42.66
16,-0.05,1.02,0.14,42.66
16,-0.02,0.99,0.11,39.24
16,-0.02,0.98,0.12,40.28
16,-0.02,0.98,0.12,40.31
16,-0.05,1.03,0.13,37.96
16,-0.05,0.97,0.12,42.86
16,-0.02,0.97,0.12,44.79
16,-0.05,1.01,0.12,44.79
16,-0.02,1.02,0.11,46.91
16,-0.02,1.02,0.12,41.26
16,-0.01,0.98,0.12,41.26
16,-0.06,1.03,0.13,41.38
16,-0.06,1.04,0.12,42.91
16,-0.02,0.98,0.12,42.40
16,-0.03,1.00,0.13,45.53
16,-0.03,1.02,0.12,42.94
16,-0.04,1.02,0.12,44.07
16,-0.02,0.97,0.11,44.07
16,-0.06,1.02,0.11,42.27
16,-0.06,1.02,0.11,44.30
16,-0.02,0.99,0.11,44.30
16,-0.02,0.98,0.12,39.20
16,-0.02,0.98,0.13,40.37
16,-0.05,1.04,0.13,40.37
16,-0.03,0.97,0.12,40.57
16,-0.03,0.94,0.12,45.65
16,-0.05,1.00,0.12,42.37
16,-0.04,1.01,0.11,42.37
16,-0.04,0.98,0.12,42.94
16,-0.03,0.98,0.12,44.24
16,-0.05,1.02,0.12,44.24
16,-0.02,0.99,0.11,40.87
16,-0.02,0.99,0.12,38.06
16,-0.03,1.00,0.12,38.06
16,-0.04,1.03,0.12,41.68
16,-0.04,1.03,0.12,39.53
16,-0.03,0.97,0.12,39.59
16,-0.06,1.02,0.13,39.59
16,-0.06,1.00,0.10,42.06
16,-0.03,1.00,0.10,39.75
16,-0.01,0.98,0.13,39.75
16,-0.06,1.03,0.12,34.81
16,-0.06,1.03,0.06,44.51
16,-0.02,0.97,0.13,44.51
16,-0.04,1.01,0.13,43.23
16,-0.04,1.01,0.12,44.47
16,-0.03,1.02,0.12,44.04
16,-0.02,0.97,0.13,36.99
16,-0.02,0.96,0.14,37.18
16,-0.06,1.02,0.14,35.40
16,-0.03,0.99,0.11,35.40
16,-0.03,1.00,0.12,41.44
16,-0.03,1.00,0.07,39.52
16,-0.05,1.03,0.13,39.52
16,-0.02,0.96,0.12,38.98
16,-0.02,0.96,0.13,39.16
16,-0.05,1.02,0.13,39.16
16,-0.03,1.01,0.12,41.89
16,-0.03,1.04,0.12,39.53
16,-0.03,0.98,0.12,39.76
16,-0.06,1.03,0.13,40.54
16,-0.06,0.97,0.11,43.35
16,-0.03,0.97,0.11,38.54
16,-0.03,0.99,0.13,38.54
16,-0.04,1.02,0.13,38.75
16,-0.04,1.02,0.16,43.77
16,-0.02,0.97,0.10,43.77
16,-0.06,1.02,0.14,44.57
16,-0.06,1.00,0.11,43.43
16,-0.02,1.00,0.11,43.26
16,-0.02,0.98,0.12,42.48
16,-0.02,1.04,0.12,43.30
16,-0.04,1.04,0.12,41.91
16,-0.03,0.97,0.11,41.91
16,-0.04,1.01,0.13,42.17
16,-0.04,1.01,0.17,38.68
16,-0.02,1.01,0.11,38.68
16,-0.02,0.97,0.11,39.84
16,-0.02,0.97,0.14,39.50
16,-0.06,1.03,0.14,39.58
16,-0.02,0.98,0.12,41.15
16,-0.02,1.00,0.12,44.33
16,-0.03,1.00,0.12,41.55
16,-0.04,1.03,0.12,41.55
16,-0.04,0.97,0.11,41.14
16,-0.02,0.97,0.12,40.22
16,-0.05,1.02,0.12,40.22
16,-0.02,1.00,0.10,41.32
16,-0.02,1.00,0.12,39.54
16,-0.02,0.97,0.12,39.54
16,-0.04,1.04,0.12,40.47
16,-0.04,1.04,0.12,39.33
16,-0.02,0.97,0.12,39.46
16,-0.04,1.01,0.13,40.24
16,-0.04,1.01,0.11,43.53
16,-0.03,1.01,0.11,40.34
16,-0.03,0.97,0.10,40.34
16,-0.06,1.02,0.14,40.08
16,-0.06,1.02,0.17,43.97
16,-0.03,0.99,0.11,43.97
16,-0.02,1.00,0.12,41.88
16,-0.02,1.00,0.12,43.06
16,-0.04,1.03,0.12,43.07
16,-0.02,0.97,0.11,43.85
16,-0.02,0.95,0.13,45.26
16,-0.05,1.01,0.13,38.55
16,-0.03,1.00,0.12,38.55
16,-0.02,0.97,0.11,41.35
16,-0.02,0.97,0.06,40.81
16,-0.06,1.03,0.13,40.81
16,-0.02,0.98,0.12,40.61
16,-0.02,0.98,0.13,36.22
16,-0.04,1.00,0.13,36.22
16,-0.02,1.02,0.12,38.91
16,-0.02,1.03,0.11,41.83
16,-0.02,0.97,0.11,42.01
16,-0.05,1.03,0.13,45.92
16,-0.05,0.99,0.12,40.40
16,-0.03,0.99,0.12,41.37
16,-0.01,0.99,0.12,41.37
16,-0.04,1.03,0.11,38.82
16,-0.04,1.03,0.11,44.12
16,-0.02,0.97,0.11,44.12
16,-0.05,1.01,0.14,39.31
16,-0.05,1.01,0.11,38.60
16,-0.03,1.01,0.11,38.75
16,-0.01,0.98,0.12,41.10
16,-0.01,1.02,0.13,44.77
16,-0.06,1.02,0.13,45.41
16,-0.01,0.98,0.11,45.41
16,-0.03,1.00,0.12,41.80
16,-0.03,1.00,0.12,40.13
16,-0.04,1.02,0.12,40.13
16,-0.02,0.98,0.11,37.62
16,-0.02,0.98,0.12,42.31
16,-0.06,1.02,0.12,42.31
16,-0.03,1.00,0.12,46.44
16,-0.03,0.99,0.11,42.82
16,-0.02,0.99,0.11,41.71
16,-0.04,1.03,0.13,41.71
16,-0.04,0.97,0.11,41.03
16,-0.03,0.97,0.12,45.88
16,-0.04,1.00,0.12,45.88
16,-0.02,1.01,0.11,45.28
16,-0.02,1.01,0.12,40.20
16,-0.03,0.98,0.12,40.20
16,-0.06,1.02,0.13,42.15
16,-0.06,1.04,0.12,43.16
16,-0.02,0.98,0.12,43.44
16,-0.03,1.00,0.13,39.52
16,-0.03,1.02,0.12,42.76
16,-0.04,1.02,0.12,40.90
16,-0.02,0.97,0.12,40.90
16,-0.05,1.03,0.13,39.65
16,-0.05,1.03,0.17,41.49
16,-0.02,1.00,0.10,41.49
16,-0.02,0.99,0.12,46.33
16,-0.02,0.99,0.13,38.01
16,-0.05,1.03,0.13,37.82
16,-0.03,0.98,0.11,43.30
16,-0.03,0.95,0.12,42.66
16,-0.04,1.01,0.12,36.88
16,-0.04,1.01,0.12,36.88
16,-0.04,0.97,0.11,51.59
16,-0.02,0.97,0.07,41.86
16,-0.07,1.02,0.14,41.86
16,-0.03,0.98,0.12,43.41
16,-0.03,0.98,0.13,42.75
16,-0.03,0.99,0.13,42.75
16,-0.05,1.02,0.13,43.77
16,-0.05,1.03,0.11,43.45
16,-0.03,0.96,0.11,43.42
16,-0.05,1.01,0.13,38.72
16,-0.05,1.00,0.11,44.62
16,-0.03,1.00,0.11,42.14
16,-0.02,0.99,0.12,42.14
16,-0.05,1.02,0.13,38.18
17,-0.02,0.99,0.11,44.55
17,-0.03,1.00,0.13,42.99
17,-0.03,1.00,0.13,38.58
17,-0.04,1.04,0.13,38.45
17,-0.02,0.98,0.12,41.59
17,-0.02,0.95,0.13,44.33
17,-0.05,1.01,0.13,44.04
17,-0.03,1.01,0.12,44.04
17,-0.03,0.98,0.11,45.90
17,-0.02,0.98,0.07,42.28
17,-0.05,1.02,0.13,42.28
17,-0.02,0.98,0.11,50.50
17,-0.02,0.98,0.13,45.33
17,-0.03,1.00,0.13,45.33
17,-0.04,1.02,0.12,44.46
17,-0.04,1.04,0.12,39.76
17,-0.02,0.97,0.12,39.70
17,-0.05,1.02,0.14,42.05
17,-0.05,1.00,0.12,45.52
17,-0.03,1.00,0.12,39.24
17,-0.02,0.99,0.12,39.24
17,-0.05,1.04,0.13,45.92
17,-0.05,1.04,0.17,45.55
17,-0.02,0.97,0.11,45.55
17,-0.04,1.01,0.12,43.20
17,-0.04,1.01,0.12,42.97
17,-0.03,1.02,0.12,42.63
17,-0.03,0.97,0.12,46.55
17,-0.03,0.96,0.12,42.10
17,-0.06,1.02,0.12,41.96
17,-0.02,0.99,0.11,41.96
17,-0.03,0.99,0.12,42.79
17,-0.03,0.99,0.12,38.18
17,-0.04,1.03,0.12,38.18
17,-0.02,0.97,0.11,41.07
17,-0.02,0.97,0.13,40.34
17,-0.06,1.02,0.13,40.34
17,-0.03,1.00,0.11,43.67
17,-0.03,1.05,0.12,44.53
17,-0.02,0.98,0.12,44.05
17,-0.06,1.03,0.12,37.78
17,-0.06,0.97,0.11,38.28
17,-0.02,0.97,0.11,41.88
17,-0.04,1.01,0.12,41.88
17,-0.03,1.02,0.11,39.34
17,-0.03,1.02,0.11,42.00
17,-0.02,0.97,0.11,42.00
17,-0.05,1.02,0.13,45.33
17,-0.05,1.05,0.11,38.64
17,-0.03,0.99,0.11,38.75
17,-0.02,0.99,0.12,37.97
17,-0.02,1.02,0.12,43.04
17,-0.04,1.02,0.12,40.82
17,-0.03,0.97,0.12,40.82
17,-0.05,1.01,0.12,43.41
17,-0.05,1.01,0.11,39.68
17,-0.02,1.01,0.11,39.68
17,-0.02,0.98,0.13,38.64
17,-0.02,0.98,0.12,38.81
17,-0.06,1.03,0.12,38.34
17,-0.03,0.98,0.12,40.69
17,-0.03,1.00,0.13,44.97
17,-0.03,1.00,0.13,38.80
17,-0.03,1.02,0.13,38.80
17,-0.03,0.98,0.11,43.94
17,-0.02,0.98,0.07,38.39
17,-0.06,1.02,0.13,38.39
17,-0.02,0.99,0.11,40.15
17,-0.02,0.99,0.11,43.29
17,-0.02,0.99,0.11,43.29
17,-0.05,1.03,0.12,48.71
17,-0.05,1.04,0.11,43.49
17,-0.02,0.97,0.11,43.44
17,-0.04,1.01,0.13,48.14
17,-0.04,1.01,0.12,38.63
17,-0.03,1.01,0.12,43.07
17,-0.02,0.99,0.13,43.07
17,-0.05,1.03,0.13,34.59
17,-0.05,1.03,0.11,44.32
17,-0.03,0.99,0.11,44.32
17,-0.03,0.99,0.12,39.61
17,-0.03,0.96,0.13,46.79
17,-0.04,1.02,0.13,46.91
17,-0.02,0.97,0.11,39.86
17,-0.02,1.01,0.13,43.53
17,-0.06,1.01,0.13,39.54
17,-0.02,1.00,0.11,39.54
17,-0.03,0.99,0.11,44.36
17,-0.03,0.99,0.06,45.22
17,-0.05,1.03,0.13,45.22
17,-0.03,0.97,0.12,43.62
17,-0.03,0.97,0.12,41.86
17,-0.04,1.00,0.12,41.70
17,-0.04,1.02,0.11,44.05
17,-0.04,1.04,0.12,41.32
17,-0.02,0.98,0.12,38.35
17,-0.05,1.03,0.12,38.35
17,-0.05,0.98,0.10,44.26
17,-0.02,0.98,0.12,44.55
17,-0.03,0.99,0.12,44.55
17,-0.04,1.02,0.13,43.20
17,-0.04,1.02,0.13,34.77
17,-0.03,0.97,0.13,34.77
17,-0.04,1.02,0.13,39.89
17,-0.04,1.01,0.11,38.77
17,-0.02,1.01,0.11,38.94
17,-0.02,0.97,0.12,42.07
17,-0.02,1.03,0.13,34.24
17,-0.05,1.03,0.13,41.36
17,-0.03,0.98,0.11,41.36
17,-0.05,1.01,0.13,41.48
17,-0.05,1.01,0.19,44.00
17,-0.03,1.02,0.12,44.00
17,-0.03,0.97,0.11,45.75
17,-0.03,0.97,0.14,41.60
17,-0.06,1.02,0.14,41.93
17,-0.01,0.99,0.12,43.50
17,-0.01,0.99,0.12,38.92
17,-0.03,0.99,0.12,38.78
17,-0.05,1.03,0.12,38.78
17,-0.03,0.98,0.13,38.07
17,-0.03,0.98,0.18,46.42
17,-0.05,1.02,0.12,46.42
17,-0.03,1.01,0.11,39.36
17,-0.03,1.01,0.12,40.74
17,-0.02,0.97,0.12,40.74
17,-0.05,1.02,0.14,40.14
17,-0.05,1.05,0.11,37.94
17,-0.02,0.99,0.11,37.71
17,-0.04,1.00,0.12,47.89
17,-0.04,1.03,0.12,45.41
17,-0.04,1.03,0.12,41.73
17,-0.02,0.96,0.12,41.73
17,-0.06,1.02,0.13,40.77
17,-0.06,1.02,0.10,40.55
17,-0.03,0.99,0.10,40.55
17,-0.02,0.99,0.11,39.86
17,-0.02,0.96,0.14,36.71
17,-0.05,1.02,0.14,36.49
17,-0.03,0.97,0.12,43.54
17,-0.03,1.01,0.12,44.57
17,-0.04,1.01,0.12,40.43
17,-0.02,1.00,0.11,40.43
17,-0.01,0.97,0.13,41.88
17,-0.01,0.97,0.14,42.25
17,-0.06,1.02,0.14,42.25
17,-0.02,0.98,0.11,43.72
17,-0.02,0.98,0.13,43.29
17,-0.03,0.99,0.13,43.79
17,-0.04,1.02,0.12,36.74
17,-0.04,1.04,0.11,36.98
17,-0.02,0.97,0.11,47.07
17,-0.06,1.01,0.14,47.07
17,-0.06,1.01,0.11,40.71
17,-0.03,1.01,0.11,37.76
17,-0.02,0.98,0.11,37.76
17,-0.04,1.04,0.13,40.30
17,-0.04,1.04,0.12,41.89
17,-0.02,0.97,0.12,41.89
17,-0.04,1.01,0.13,43.81
17,-0.04,1.02,0.11,41.16
17,-0.03,1.02,0.11,40.91
17,-0.02,0.97,0.12,34.64
17,-0.02,1.03,0.13,40.13
17,-0.05,1.03,0.13,44.81
17,-0.02,0.99,0.11,44.81
17,-0.02,1.00,0.12,44.05
17,-0.02,1.00,0.06,38.59
17,-0.04,1.02,0.13,38.59
17,-0.02,0.97,0.12,35.91
17,-0.02,0.97,0.13,39.30
17,-0.05,1.01,0.13,39.45
17,-0.02,1.01,0.11,43.37
17,-0.02,1.04,0.12,42.69
17,-0.03,0.98,0.12,43.22
17,-0.05,1.03,0.14,43.22
17,-0.05,0.97,0.12,38.14
17,-0.03,0.97,0.06,42.48
17,-0.04,1.00,0.13,42.48
17,-0.04,1.01,0.12,42.32
17,-0.04,1.01,0.12,44.21
17,-0.02,0.97,0.12,44.21
17,-0.05,1.02,0.14,45.40
17,-0.05,1.00,0.11,44.20
17,-0.02,1.00,0.11,44.06
17,-0.03,0.99,0.11,44.84
17,-0.03,1.03,0.13,42.91
17,-0.05,1.03,0.13,38.89
17,-0.03,0.97,0.11,38.89
17,-0.05,1.01,0.12,42.46
17,-0.05,1.01,0.11,43.03
17,-0.02,1.01,0.11,43.03
17,-0.03,0.98,0.12,37.38
17,-0.03,0.97,0.14,40.94
17,-0.05,1.03,0.14,41.19
17,-0.03,0.98,0.11,40.41
17,-0.03,1.00,0.13,46.59
17,-0.03,1.00,0.13,44.91
17,-0.04,1.02,0.12,44.91
17,-0.02,0.97,0.12,48.72
17,-0.02,0.97,0.07,42.61
17,-0.06,1.02,0.14,42.61
17,-0.02,1.00,0.11,40.09
17,-0.02,1.00,0.12,42.17
17,-0.02,0.98,0.12,41.83
17,-0.05,1.03,0.13,38.69
17,-0.05,1.03,0.12,41.55
17,-0.03,0.97,0.12,46.12
17,-0.04,1.01,0.13,46.12
17,-0.03,1.01,0.11,41.17
17,-0.03,1.01,0.12,40.77
17,-0.02,0.98,0.12,40.77
17,-0.05,1.03,0.15,44.75
17,-0.05,1.03,0.11,42.52
17,-0.03,0.99,0.11,42.52
17,-0.03,1.00,0.13,44.12
17,-0.03,0.97,0.12,41.86
17,-0.04,1.03,0.12,41.64
17,-0.02,0.98,0.12,42.43
17,-0.02,1.01,0.14,42.99
17,-0.05,1.01,0.14,35.42
17,-0.03,1.00,0.10,35.42
17,-0.03,0.98,0.12,51.74
17,-0.03,0.98,0.07,38.42
17,-0.06,1.03,0.13,38.42
17,-0.02,0.97,0.11,43.64
17,-0.02,0.94,0.13,41.45
17,-0.04,1.00,0.13,42.22
17,-0.03,1.02,0.13,42.22
17,-0.03,0.98,0.12,44.54
17,-0.02,0.98,0.12,47.11
17,-0.05,1.03,0.13,47.11
18,-0.02,1.01,0.12,42.56
18,-0.02,0.98,0.12,42.56
18,-0.05,1.02,0.13,41.81
18,-0.05,1.02,0.11,46.35
18,-0.03,0.98,0.11,46.35
18,-0.03,1.00,0.13,43.58
18,-0.03,0.96,0.12,41.99
18,-0.04,1.02,0.12,41.61
18,-0.02,0.98,0.12,41.61
18,-0.02,1.03,0.13,39.70
18,-0.05,1.03,0.13,46.80
18,-0.02,0.99,0.11,46.80
18,-0.02,0.99,0.12,47.26
18,-0.02,0.99,0.07,43.22
18,-0.05,1.03,0.13,43.22
18,-0.03,0.97,0.11,44.37
18,-0.03,0.97,0.14,41.63
18,-0.05,1.01,0.14,41.59
18,-0.03,1.01,0.11,45.50
18,-0.03,0.98,0.12,45.29
18,-0.03,0.98,0.12,44.43
18,-0.06,1.03,0.13,44.43
18,-0.03,0.99,0.12,40.59
18,-0.03,0.99,0.12,41.19
18,-0.03,0.99,0.12,41.19
18,-0.04,1.03,0.12,44.31
18,-0.04,1.03,0.11,43.19
18,-0.02,0.97,0.11,43.19
18,-0.05,1.02,0.12,43.37
18,-0.05,1.01,0.12,39.08
18,-0.03,1.01,0.12,38.89
18,-0.02,0.98,0.11,34.97
18,-0.02,1.02,0.13,41.23
18,-0.05,1.02,0.17,43.67
18,-0.03,0.98,0.11,43.67
18,-0.05,1.01,0.12,37.83
18,-0.05,1.01,0.11,47.73
18,-0.02,1.02,0.11,47.73
18,-0.02,0.98,0.11,43.51
18,-0.02,0.96,0.12,46.47
18,-0.05,1.02,0.12,46.67
18,-0.03,0.98,0.12,39.62
18,-0.03,0.99,0.12,39.52
18,-0.03,0.99,0.12,42.73
18,-0.04,1.03,0.12,42.73
18,-0.02,0.98,0.11,43.31
18,-0.02,0.98,0.07,39.09
18,-0.05,1.01,0.13,39.09
18,-0.03,1.00,0.11,41.05
18,-0.03,1.00,0.13,47.60
18,-0.02,0.98,0.13,47.17
18,-0.05,1.02,0.15,40.90
18,-0.05,1.04,0.11,41.94
18,-0.02,0.98,0.11,43.30
18,-0.04,1.00,0.13,43.30
18,-0.04,1.01,0.11,44.17
18,-0.03,1.01,0.12,45.29
18,-0.03,0.98,0.12,45.29
18,-0.05,1.02,0.13,41.30
18,-0.05,1.02,0.11,44.21
18,-0.03,0.99,0.11,44.21
18,-0.03,0.99,0.12,44.37
18,-0.03,0.96,0.12,44.25
18,-0.04,1.03,0.12,44.52
18,-0.03,0.98,0.12,39.82
18,-0.03,1.01,0.13,42.66
18,-0.04,1.01,0.13,39.63
18,-0.03,1.01,0.12,39.63
18,-0.03,0.98,0.13,36.66
18,-0.03,0.98,0.19,46.55
18,-0.05,1.03,0.12,46.55
18,-0.03,0.98,0.11,42.86
18,-0.03,0.98,0.12,41.29
18,-0.03,1.00,0.12,41.09
18,-0.04,1.02,0.11,43.44
18,-0.04,0.97,0.12,34.90
18,-0.02,0.97,0.12,43.92
18,-0.05,1.02,0.13,43.92
18,-0.03,1.00,0.11,41.47
18,-0.03,1.00,0.12,41.99
18,-0.03,0.99,0.12,41.99
18,-0.05,1.04,0.12,38.97
18,-0.05,1.04,0.11,37.67
18,-0.02,0.97,0.11,37.67
18,-0.04,1.01,0.12,42.01
18,-0.04,1.01,0.12,37.65
18,-0.02,1.01,0.12,40.50
18,-0.03,0.98,0.12,40.50
18,-0.03,1.03,0.12,38.12
18,-0.06,1.03,0.12,38.55
