seconds, accX, accY, accZ, temp
10,-0.01,1.00,0.09,42.42
10,0.02,0.98,0.08,42.42
10,0.00,1.00,0.09,46.25
10,0.00,1.00,0.09,46.04
10,-0.03,1.03,0.09,46.04
10,-0.02,1.01,0.08,40.83
10,-0.02,1.01,0.10,47.76
10,0.01,0.98,0.10,47.76
10,0.01,0.99,0.09,43.26
10,0.01,0.96,0.09,46.44
10,-0.03,1.02,0.09,46.47
10,-0.03,1.02,0.09,49.60
10,-0.03,0.99,0.09,48.46
10,0.00,0.99,0.09,48.59
10,0.02,0.99,0.09,48.59
10,0.04,1.02,0.09,51.43
10,-0.02,1.02,0.08,50.43
10,-0.03,1.02,0.08,50.43
10,-0.01,0.99,0.09,44.52
10,-0.01,0.98,0.08,40.81
10,0.02,0.98,0.08,40.89
10,-0.01,1.00,0.09,40.10
10,-0.01,1.02,0.08,42.26
10,-0.03,1.02,0.08,43.79
10,-0.01,1.01,0.09,43.79
10,-0.05,0.98,0.10,41.58
10,0.01,0.98,0.09,47.25
10,0.01,1.00,0.09,47.25
10,-0.02,1.01,0.09,42.13
10,-0.02,1.01,0.08,43.00
10,-0.01,1.01,0.08,42.52
10,0.02,0.98,0.09,40.17
10,0.02,0.99,0.09,44.03
10,0.01,0.99,0.09,42.75
10,-0.03,1.02,0.09,42.75
10,-0.03,1.01,0.09,42.59
10,-0.02,1.01,0.08,41.40
10,-0.00,0.98,0.08,41.40
10,-0.04,0.99,0.09,42.56
10,0.02,0.99,0.08,45.44
10,-0.02,1.02,0.08,45.44
10,-0.02,1.03,0.08,49.19
10,-0.02,1.06,0.07,41.96
10,-0.00,0.99,0.07,41.59
10,0.02,0.98,0.08,49.42
10,0.02,1.01,0.08,41.68
10,-0.00,1.01,0.08,53.75
10,-0.03,1.01,0.09,53.75
10,-0.01,1.00,0.09,44.91
10,-0.01,1.00,0.08,46.34
10,0.02,0.99,0.08,46.34
10,0.01,0.99,0.09,43.32
10,0.01,0.99,0.08,45.91
10,-0.03,1.02,0.08,46.03
10,-0.01,1.01,0.08,45.24
10,-0.01,0.98,0.09,47.36
10,0.01,0.98,0.09,40.27
10,-0.00,0.99,0.09,40.27
10,-0.03,1.02,0.07,41.86
10,-0.03,1.02,0.07,49.40
10,-0.03,1.02,0.07,49.40
10,0.00,0.99,0.09,47.61
10,0.00,0.99,0.09,46.74
10,0.01,0.99,0.09,46.74
10,-0.02,1.02,0.08,46.65
10,-0.02,1.02,0.08,45.45
10,-0.04,1.02,0.08,45.53
10,0.00,0.99,0.09,47.88
10,0.00,0.99,0.10,40.43
10,0.02,0.99,0.10,44.39
10,-0.01,1.01,0.10,44.39
10,-0.03,1.02,0.09,40.81
10,-0.03,1.02,0.09,41.40
10,-0.02,1.01,0.09,41.40
10,0.02,0.98,0.09,43.11
10,0.02,1.00,0.10,46.22
10,0.00,1.00,0.10,46.75
10,-0.03,1.02,0.08,42.05
10,-0.03,1.00,0.08,40.29
10,-0.03,1.00,0.08,42.64
10,0.00,0.99,0.09,42.64
10,0.01,0.99,0.09,39.93
10,0.01,0.99,0.08,44.70
10,-0.02,1.01,0.08,44.70
10,-0.02,1.01,0.08,45.96
10,-0.02,1.01,0.07,43.01
10,0.01,0.99,0.07,42.37
10,0.02,0.98,0.09,45.50
10,0.02,0.95,0.09,39.03
10,-0.02,1.01,0.09,46.14
10,-0.03,1.01,0.08,46.14
10,-0.03,1.00,0.08,42.70
10,-0.00,1.00,0.09,37.71
10,0.01,0.99,0.09,37.71
10,0.06,1.00,0.09,42.44
10,-0.01,1.00,0.08,44.54
10,-0.02,1.02,0.08,44.54
10,-0.00,1.01,0.09,47.22
10,-0.00,1.04,0.09,46.17
10,0.01,0.98,0.09,46.82
10,0.00,0.99,0.09,49.17
10,0.00,1.03,0.09,45.99
10,-0.03,1.03,0.09,56.07
10,-0.02,1.01,0.09,56.07
10,-0.06,0.99,0.10,47.60
10,0.01,0.99,0.10,43.95
10,0.00,1.00,0.10,43.95
10,-0.02,1.02,0.09,47.35
10,-0.02,1.02,0.08,48.12
10,-0.03,1.01,0.08,47.78
10,0.01,0.99,0.09,43.08
10,0.01,0.99,0.08,44.30
10,0.01,0.99,0.08,42.61
10,-0.01,1.01,0.08,42.61
10,-0.02,1.01,0.07,42.70
10,-0.02,1.01,0.08,49.32
10,-0.00,0.98,0.08,49.32
10,0.02,0.98,0.09,41.03
10,0.02,0.98,0.09,44.24
10,-0.00,1.00,0.09,44.24
10,-0.03,1.01,0.08,44.16
10,-0.03,1.06,0.09,45.21
10,-0.01,1.00,0.09,45.06
10,0.02,0.98,0.09,38.80
10,0.02,1.00,0.09,43.35
10,0.00,1.00,0.07,44.13
10,-0.01,1.02,0.07,44.13
10,-0.02,1.00,0.08,45.03
10,-0.02,1.00,0.09,48.81
10,0.01,0.98,0.09,48.81
10,0.01,0.99,0.08,45.40
10,0.01,0.95,0.09,43.94
10,-0.02,1.01,0.09,44.04
10,-0.03,1.02,0.09,55.79
10,-0.03,0.99,0.09,46.85
10,0.01,0.99,0.09,44.02
10,0.01,0.98,0.10,44.02
10,0.05,1.01,0.09,46.23
10,-0.02,1.01,0.09,40.93
10,-0.02,1.02,0.09,40.93
10,-0.00,0.99,0.08,44.37
10,-0.00,0.99,0.09,42.70
10,0.01,0.98,0.09,42.53
10,-0.01,1.00,0.08,42.53
10,-0.01,1.02,0.08,45.29
10,-0.03,1.02,0.08,44.19
10,-0.00,1.00,0.08,44.19
10,-0.00,0.98,0.09,42.20
10,0.02,0.98,0.08,44.25
10,-0.00,0.99,0.08,44.25
10,-0.03,1.02,0.08,44.67
10,-0.03,1.02,0.09,42.21
10,-0.02,1.00,0.09,42.21
10,0.00,0.99,0.09,45.98
10,0.00,0.99,0.09,39.71
10,0.00,0.99,0.09,39.50
10,-0.02,1.02,0.09,40.28
10,-0.02,1.02,0.09,47.79
10,-0.02,1.02,0.09,40.42
10,0.00,0.99,0.10,40.42
10,0.02,0.99,0.10,42.52
10,0.02,0.99,0.08,41.86
10,-0.01,1.01,0.08,41.86
10,-0.03,1.02,0.09,43.66
10,-0.03,1.02,0.09,45.17
10,-0.00,0.99,0.09,44.83
10,0.01,0.98,0.09,43.27
10,0.01,1.00,0.09,46.47
10,-0.01,1.00,0.09,41.32
10,-0.02,1.02,0.08,41.32
10,-0.01,0.99,0.07,44.26
10,-0.01,0.99,0.07,38.86
10,0.02,0.98,0.07,38.86
10,-0.01,0.99,0.08,45.61
10,-0.01,0.99,0.09,44.59
10,-0.02,1.02,0.09,44.59
10,-0.02,1.01,0.08,40.78
10,-0.02,1.05,0.08,39.75
10,0.01,0.98,0.08,39.54
10,0.01,1.00,0.09,43.46
10,0.01,1.02,0.09,47.93
10,-0.02,1.02,0.09,38.96
10,-0.02,1.00,0.09,38.96
10,-0.05,0.99,0.08,44.47
10,0.01,0.99,0.08,41.63
10,0.01,0.99,0.08,41.63
10,-0.01,1.01,0.09,42.03
10,-0.01,1.02,0.08,45.19
10,-0.03,1.02,0.08,44.88
10,0.00,0.99,0.09,45.66
10,0.00,0.99,0.10,41.31
10,0.00,0.99,0.10,43.32
10,-0.02,1.01,0.10,43.32
10,-0.03,1.02,0.10,44.78
10,-0.03,1.02,0.09,42.48
10,-0.02,0.99,0.09,42.48
10,0.01,0.98,0.10,40.52
10,0.01,0.98,0.08,45.09
10,0.01,1.00,0.08,44.77
10,-0.02,1.02,0.08,45.55
10,-0.02,1.01,0.09,45.60
11,0.02,0.99,0.09,45.06
11,0.04,1.01,0.10,40.54
11,-0.02,1.01,0.10,43.05
11,-0.03,1.02,0.10,43.05
11,-0.00,0.99,0.09,43.24
11,-0.00,0.99,0.11,42.10
11,0.01,0.98,0.11,42.10
11,-0.02,1.01,0.09,44.06
11,-0.02,1.01,0.09,43.61
11,-0.03,1.01,0.09,43.12
11,-0.01,1.00,0.09,39.20
11,-0.01,0.98,0.08,44.90
11,0.02,0.98,0.09,43.31
11,0.01,1.00,0.09,43.31
11,0.03,1.02,0.07,48.21
11,-0.03,1.02,0.08,46.39
11,-0.03,1.00,0.08,46.39
11,0.01,0.98,0.08,41.98
11,0.01,0.94,0.09,43.91
11,0.01,1.00,0.09,44.00
11,-0.03,1.02,0.08,45.56
11,-0.03,1.01,0.08,42.84
11,-0.02,1.01,0.08,40.50
11,-0.00,0.98,0.09,40.50
11,-0.04,0.98,0.09,46.28
11,0.02,0.98,0.08,47.36
11,-0.00,1.01,0.08,47.36
11,-0.00,1.02,0.09,43.96
11,-0.00,1.02,0.09,40.47
11,0.02,0.99,0.09,40.44
11,0.02,0.97,0.09,44.36
11,0.02,0.94,0.09,44.58
11,-0.00,1.01,0.09,48.26
11,-0.02,1.01,0.08,48.26
11,-0.02,0.99,0.07,37.34
11,-0.02,0.99,0.07,40.77
11,-0.00,0.99,0.07,40.77
11,-0.01,1.00,0.09,41.67
11,-0.01,1.00,0.09,49.74
11,-0.04,1.01,0.09,49.74
11,-0.03,1.01,0.08,40.53
11,-0.03,1.05,0.09,45.20
11,0.01,0.99,0.09,45.07
11,0.01,1.00,0.09,51.34
11,0.01,1.01,0.10,45.50
11,-0.02,1.01,0.10,49.33
11,-0.02,1.01,0.09,49.33
11,-0.06,0.99,0.08,45.49
11,0.00,0.99,0.09,49.05
11,0.01,0.99,0.09,49.05
11,-0.01,1.02,0.09,42.49
11,-0.01,1.02,0.09,40.86
11,-0.02,1.01,0.09,41.31
11,-0.00,0.99,0.09,42.88
11,-0.00,0.99,0.08,41.95
11,0.02,0.99,0.08,38.80
11,0.00,1.00,0.08,38.80
11,0.00,1.02,0.08,42.17
11,-0.03,1.02,0.08,39.80
11,-0.01,1.00,0.08,39.80
11,-0.00,0.98,0.08,48.65
11,-0.00,0.98,0.08,49.46
11,-0.01,1.00,0.08,49.46
11,-0.02,1.02,0.08,41.29
11,-0.02,1.00,0.09,42.34
11,-0.02,1.00,0.09,42.24
11,0.01,0.98,0.09,39.89
11,0.01,0.99,0.09,45.00
11,0.01,0.99,0.09,43.78
11,-0.02,1.02,0.09,43.78
11,-0.02,1.01,0.09,41.19
11,-0.02,1.01,0.09,48.25
11,0.01,0.98,0.09,48.25
11,0.00,0.98,0.09,44.40
11,0.00,0.95,0.09,44.07
11,-0.01,1.01,0.09,44.09
11,-0.02,1.02,0.09,45.65
11,-0.02,1.00,0.09,47.86
11,0.01,1.00,0.09,40.85
11,0.01,0.98,0.09,40.85
11,0.06,1.00,0.09,42.82
11,-0.01,1.00,0.08,43.08
11,-0.03,1.01,0.08,43.08
11,-0.01,1.00,0.08,44.09
11,-0.01,1.00,0.09,39.15
11,0.01,0.98,0.09,39.15
11,-0.00,0.99,0.09,42.85
11,-0.00,0.97,0.09,44.65
11,-0.02,1.03,0.09,43.41
11,-0.01,1.01,0.09,43.41
11,-0.01,0.99,0.09,39.87
11,0.02,0.99,0.09,43.47
11,0.00,0.99,0.09,43.47
11,0.04,1.01,0.09,42.17
11,-0.02,1.01,0.09,43.10
11,-0.01,1.01,0.09,43.10
11,0.01,0.98,0.08,42.36
11,0.01,0.98,0.08,41.63
11,0.02,0.98,0.08,41.88
11,-0.01,1.01,0.09,40.31
11,-0.01,1.01,0.08,41.60
11,-0.02,1.01,0.08,39.49
11,0.00,0.99,0.08,39.49
11,0.01,0.98,0.09,40.80
11,0.01,0.98,0.08,43.39
11,-0.01,1.01,0.08,43.39
11,-0.03,1.02,0.09,42.27
11,-0.03,1.02,0.09,38.85
11,-0.01,1.00,0.09,38.76
11,0.02,1.00,0.09,45.03
11,0.02,0.94,0.10,40.19
11,-0.01,1.00,0.10,38.12
11,-0.03,1.02,0.09,38.12
11,-0.03,1.01,0.10,45.31
11,-0.01,1.01,0.10,40.31
11,0.02,0.99,0.10,40.31
11,0.02,1.00,0.10,40.21
11,0.02,1.00,0.10,43.04
11,-0.01,1.02,0.10,43.04
11,-0.02,1.01,0.07,41.64
11,-0.02,1.05,0.08,43.84
11,0.01,0.99,0.08,44.48
11,0.01,0.99,0.08,42.91
11,0.01,1.02,0.08,50.30
11,-0.02,1.02,0.08,45.09
11,-0.02,1.01,0.08,45.09
11,-0.06,0.98,0.07,45.46
11,0.00,0.98,0.08,45.39
11,0.01,0.99,0.08,45.39
11,-0.02,1.01,0.08,47.10
11,-0.02,1.01,0.09,43.96
11,-0.02,1.02,0.09,43.91
11,-0.00,1.00,0.09,42.34
11,-0.00,0.99,0.09,40.96
11,0.01,0.99,0.09,43.58
11,-0.00,0.99,0.10,43.58
11,-0.01,1.02,0.09,45.30
11,-0.01,1.02,0.10,42.36
11,-0.01,1.00,0.10,42.36
11,0.01,0.98,0.09,45.77
11,0.01,0.98,0.11,41.81
11,0.00,0.99,0.11,41.81
11,-0.02,1.02,0.09,42.45
11,-0.02,1.01,0.09,41.00
11,-0.03,1.01,0.09,46.92
11,0.00,0.98,0.10,46.92
11,0.00,0.99,0.09,42.04
11,0.00,0.99,0.08,40.76
11,-0.02,1.01,0.08,40.76
11,-0.03,1.01,0.09,43.41
11,-0.03,1.01,0.09,46.35
11,0.00,0.99,0.09,46.35
11,0.01,0.98,0.09,45.82
11,0.01,0.95,0.09,46.03
11,-0.00,1.01,0.09,45.48
11,-0.02,1.01,0.08,47.04
11,-0.02,1.00,0.08,44.31
11,-0.00,1.00,0.08,42.89
11,0.01,0.99,0.09,42.89
11,0.05,0.99,0.09,46.51
11,-0.01,0.99,0.08,38.15
11,-0.03,1.01,0.08,38.15
11,0.00,1.00,0.08,43.40
11,0.00,1.00,0.09,43.15
11,0.02,0.99,0.09,43.31
11,0.00,0.99,0.08,43.31
11,0.00,0.95,0.08,44.27
11,-0.01,1.01,0.08,45.98
11,-0.01,1.00,0.09,45.98
11,-0.01,0.99,0.09,39.54
11,0.01,0.99,0.08,41.48
11,-0.00,1.00,0.08,41.48
11,-0.02,1.01,0.09,40.82
11,-0.02,1.01,0.09,42.50
11,-0.02,1.02,0.09,42.50
11,0.00,0.99,0.09,40.01
11,0.00,0.98,0.09,43.16
11,0.01,0.98,0.09,43.08
11,-0.00,1.01,0.07,43.86
11,-0.00,1.01,0.09,41.62
11,-0.03,1.01,0.09,43.53
11,-0.01,0.99,0.09,43.53
11,-0.05,0.99,0.09,40.73
11,0.01,0.99,0.09,39.76
11,-0.01,1.00,0.09,39.76
11,-0.03,1.01,0.09,44.62
11,-0.03,1.01,0.09,36.97
11,-0.01,1.01,0.09,36.92
11,0.01,0.99,0.09,41.62
11,0.01,0.99,0.09,45.26
11,0.00,0.99,0.09,41.74
11,-0.02,1.02,0.09,41.74
11,-0.01,1.00,0.09,49.56
11,-0.01,1.00,0.09,45.16
11,0.00,0.99,0.09,45.16
11,0.01,1.00,0.10,43.60
11,0.01,1.00,0.09,45.57
11,-0.01,1.01,0.09,45.57
11,-0.02,1.02,0.09,50.79
11,-0.02,1.04,0.10,40.96
11,-0.00,0.98,0.10,40.67
11,0.01,0.98,0.10,39.11
11,0.01,1.01,0.08,48.68
11,-0.01,1.01,0.08,42.52
11,-0.02,1.02,0.08,42.52
11,-0.00,1.00,0.08,41.71
11,-0.00,1.00,0.09,43.98
11,0.01,0.98,0.09,43.98
11,0.00,1.01,0.08,48.88
11,0.00,1.02,0.09,39.75
11,-0.02,1.02,0.09,39.31
11,-0.01,1.00,0.09,44.79
11,-0.01,0.99,0.09,41.66
11,0.02,0.99,0.09,41.86
11,-0.00,0.99,0.09,41.86
11,-0.03,1.02,0.08,42.06
11,-0.03,1.02,0.09,39.90
11,-0.02,1.00,0.09,39.90
11,0.00,0.98,0.08,51.12
11,0.00,1.00,0.09,40.14
11,0.00,1.00,0.09,43.90
11,-0.01,1.01,0.09,43.90
11,-0.03,1.02,0.09,41.31
11,0.00,0.99,0.09,42.41
11,0.00,0.99,0.09,39.75
11,0.01,0.99,0.09,39.75
11,-0.01,1.01,0.09,40.62
11,-0.01,1.01,0.09,45.50
11,-0.03,1.01,0.09,45.73
11,-0.00,1.00,0.09,40.24
11,-0.00,0.98,0.10,45.78
11,0.01,0.98,0.10,41.17
12,-0.02,1.00,0.08,46.83
12,-0.02,1.00,0.08,50.71
12,0.00,0.99,0.08,50.71
12,0.01,0.99,0.08,42.97
12,0.01,0.99,0.09,40.09
12,-0.02,1.01,0.09,40.09
12,-0.03,1.01,0.09,44.79
12,-0.03,1.06,0.09,46.18
12,0.01,0.99,0.09,44.13
12,0.01,1.00,0.09,44.13
12,0.01,1.01,0.08,39.35
12,-0.01,1.01,0.10,44.80
12,-0.03,1.01,0.10,44.80
12,-0.06,0.99,0.08,39.52
12,0.00,0.99,0.09,45.53
12,0.01,0.98,0.09,45.53
12,-0.00,1.00,0.10,47.97
12,-0.00,1.02,0.08,42.14
12,-0.03,1.02,0.08,42.23
12,-0.02,1.00,0.08,39.88
12,-0.02,0.99,0.08,44.21
12,0.01,0.99,0.08,43.48
12,0.00,1.00,0.09,43.48
12,0.04,1.01,0.09,43.88
12,-0.02,1.01,0.09,42.14
12,-0.02,1.01,0.09,42.14
12,0.01,1.00,0.09,42.68
12,0.01,1.00,0.10,45.03
12,0.01,0.99,0.10,44.65
12,-0.02,1.01,0.10,35.24
12,-0.02,1.01,0.09,46.73
12,-0.02,1.01,0.09,47.62
12,0.01,1.00,0.09,47.62
12,0.01,1.00,0.09,45.22
12,0.01,1.00,0.10,42.06
12,-0.00,1.01,0.10,42.06
12,-0.02,1.01,0.08,41.46
12,-0.02,1.01,0.08,45.17
12,-0.01,1.00,0.08,45.17
12,0.02,0.99,0.09,45.50
12,0.02,0.94,0.08,43.74
12,-0.01,1.01,0.08,43.19
12,-0.03,1.01,0.09,43.97
12,-0.03,1.00,0.08,43.47
12,0.00,1.00,0.08,43.77
12,0.01,0.99,0.08,43.77
12,0.01,1.00,0.08,47.10
12,0.01,1.00,0.09,44.62
12,-0.02,1.01,0.09,44.62
12,-0.02,1.01,0.08,48.48
12,-0.02,1.05,0.09,39.20
12,0.00,0.99,0.09,39.47
12,0.00,1.00,0.09,42.60
12,0.00,1.01,0.10,48.18
12,-0.01,1.01,0.10,43.94
12,-0.02,1.01,0.09,43.94
12,-0.06,0.99,0.09,45.73
12,0.00,0.99,0.10,43.61
12,0.02,0.98,0.10,43.61
12,-0.01,1.01,0.09,49.82
12,-0.01,1.01,0.08,47.59
12,-0.02,1.01,0.08,47.33
12,-0.00,0.99,0.08,44.98
12,-0.00,0.99,0.09,48.00
12,0.01,0.99,0.09,41.40
12,-0.01,1.01,0.08,41.40
12,-0.01,1.02,0.09,44.51
12,-0.02,1.02,0.08,41.15
12,-0.01,1.00,0.08,41.15
12,-0.05,0.99,0.08,44.15
12,0.02,0.99,0.09,47.00
12,0.01,1.00,0.09,47.00
12,-0.01,1.02,0.10,40.92
12,-0.01,1.00,0.09,43.71
12,-0.02,1.00,0.09,43.61
12,0.01,0.99,0.09,49.88
12,0.01,1.00,0.09,43.25
12,0.01,1.00,0.09,44.78
12,-0.02,1.01,0.08,44.78
12,-0.02,1.01,0.09,40.48
12,-0.02,1.01,0.10,43.94
12,-0.00,0.99,0.10,43.94
12,0.01,0.99,0.09,37.61
12,0.01,0.99,0.09,43.47
12,-0.01,1.01,0.09,43.78
12,-0.03,1.02,0.08,45.34
12,-0.03,1.06,0.09,46.91
12,0.02,1.00,0.09,42.96
12,0.02,0.98,0.09,42.96
12,0.02,1.00,0.08,35.91
12,-0.00,1.00,0.10,41.59
12,-0.04,1.02,0.10,41.59
12,-0.02,1.00,0.08,51.90
12,-0.02,1.00,0.09,47.33
12,-0.01,1.00,0.09,47.33
12,-0.02,0.99,0.10,39.97
12,-0.02,0.96,0.08,46.34
12,-0.02,1.02,0.08,46.65
12,0.01,0.99,0.08,39.60
12,0.01,0.99,0.09,41.66
12,0.01,0.99,0.09,44.00
12,0.01,0.99,0.09,44.00
12,0.05,1.01,0.08,44.27
12,-0.01,1.01,0.10,51.03
12,-0.02,1.01,0.10,51.03
12,0.01,0.99,0.10,44.52
12,0.01,1.00,0.10,42.97
12,0.00,1.00,0.10,42.53
12,-0.02,1.02,0.09,45.66
12,-0.02,1.01,0.08,46.60
12,-0.03,1.01,0.08,43.04
12,-0.00,1.00,0.09,43.04
12,-0.03,0.98,0.09,45.27
12,0.03,0.98,0.09,47.90
12,0.01,1.01,0.09,47.90
12,-0.01,1.01,0.10,40.36
12,-0.06,1.00,0.09,43.51
12,0.00,1.00,0.10,44.03
12,-0.00,0.98,0.09,43.34
12,-0.03,1.00,0.09,43.34
12,-0.03,1.01,0.08,42.63
12,-0.03,1.00,0.08,42.61
12,-0.01,1.00,0.08,41.91
12,-0.00,0.99,0.08,41.91
12,-0.05,0.99,0.07,45.16
12,0.01,0.99,0.08,38.47
12,-0.00,1.01,0.08,38.47
12,-0.01,1.00,0.09,42.43
12,-0.01,1.06,0.08,45.88
12,0.01,0.99,0.08,45.69
12,0.01,0.99,0.08,39.42
12,0.01,1.00,0.09,51.22
12,-0.02,1.00,0.09,42.68
12,-0.02,1.02,0.08,42.68
12,-0.01,1.00,0.08,40.15
12,-0.01,1.00,0.09,43.33
12,0.01,0.99,0.09,43.33
12,-0.00,1.00,0.08,45.14
12,-0.00,1.00,0.08,39.96
12,-0.02,1.01,0.08,40.37
12,-0.01,1.00,0.08,45.07
12,-0.01,1.05,0.08,45.20
12,0.01,0.99,0.08,49.17
12,0.00,1.01,0.09,49.17
12,0.04,1.01,0.09,42.45
12,-0.02,1.01,0.09,47.26
12,-0.01,1.01,0.09,47.26
12,0.01,0.99,0.11,38.35
12,0.01,0.99,0.10,41.60
12,0.00,1.00,0.10,41.60
12,-0.02,1.02,0.10,46.72
12,-0.02,1.01,0.09,45.05
12,-0.02,1.01,0.09,46.48
12,0.01,0.99,0.09,46.48
12,0.01,0.99,0.09,40.65
12,0.00,0.99,0.09,44.12
12,-0.01,1.01,0.09,44.12
12,-0.01,1.01,0.10,48.95
12,-0.01,1.01,0.09,43.68
12,0.01,0.99,0.09,43.68
12,0.02,0.99,0.09,40.99
12,0.02,0.95,0.09,41.27
12,0.00,1.01,0.09,40.71
12,-0.02,1.02,0.09,46.20
12,-0.02,1.00,0.08,50.50
12,-0.01,1.00,0.08,48.56
12,0.01,0.99,0.09,48.56
12,0.00,1.00,0.08,50.02
12,0.00,1.00,0.09,45.76
12,-0.02,1.02,0.09,45.76
12,-0.02,1.00,0.08,47.18
12,-0.02,1.00,0.09,46.26
12,0.01,0.99,0.09,46.56
12,-0.00,0.99,0.09,45.00
12,-0.00,0.96,0.09,44.16
12,-0.01,1.02,0.09,46.34
12,-0.01,1.01,0.09,46.34
12,-0.01,0.99,0.10,40.05
12,0.01,0.99,0.10,45.16
12,0.01,1.00,0.10,45.16
12,0.05,1.01,0.10,42.06
12,-0.01,1.01,0.09,41.97
12,-0.02,1.01,0.09,41.97
12,0.00,0.99,0.09,39.25
12,0.00,0.99,0.09,40.94
12,0.02,0.99,0.09,40.92
12,-0.02,1.01,0.09,46.41
12,-0.02,1.01,0.08,43.51
12,-0.02,1.01,0.08,42.29
12,-0.02,0.99,0.07,42.29
12,-0.05,0.99,0.09,39.87
12,0.02,0.99,0.08,43.32
12,0.00,1.00,0.08,43.32
12,-0.03,1.01,0.08,49.16
12,-0.03,1.01,0.09,40.37
12,-0.01,1.00,0.09,40.50
12,0.02,0.99,0.09,40.50
12,0.02,0.99,0.09,43.40
12,0.00,0.99,0.09,45.56
12,-0.02,1.00,0.09,45.56
12,-0.02,1.01,0.09,47.47
12,-0.01,1.01,0.09,43.15
12,-0.00,0.99,0.09,43.15
12,0.00,1.00,0.10,44.04
12,0.00,1.00,0.10,44.35
12,-0.01,1.01,0.10,44.35
12,-0.02,1.01,0.09,41.47
12,-0.02,1.06,0.10,40.25
12,0.01,0.99,0.10,40.35
12,0.01,0.99,0.09,44.27
12,0.01,1.00,0.08,43.15
12,-0.01,1.00,0.08,46.94
12,-0.02,1.00,0.08,46.94
12,-0.01,0.99,0.09,44.07
12,-0.01,0.99,0.08,42.71
12,0.00,0.98,0.08,42.71
12,0.00,1.00,0.09,43.57
12,0.00,0.96,0.08,52.63
12,-0.02,1.02,0.08,53.16
12,-0.01,1.01,0.08,47.67
12,-0.01,0.99,0.08,48.04
12,0.01,0.99,0.08,42.35
12,-0.00,0.99,0.07,42.35
12,-0.02,1.02,0.12,53.74
12,0.04,1.02,0.08,47.79
12,0.01,1.01,0.08,47.79
12,-0.02,0.98,0.08,47.41
12,-0.02,0.98,0.10,41.21
12,-0.02,1.01,0.10,41.15
12,-0.02,1.02,0.10,48.99
12,-0.02,1.01,0.09,43.25
12,-0.04,1.01,0.09,46.76
13,0.01,0.99,0.08,53.56
13,-0.00,0.99,0.08,48.63
13,-0.03,1.01,0.09,48.63
13,-0.01,1.00,0.08,49.54
13,-0.01,1.00,0.09,42.60
13,-0.00,0.99,0.09,42.60
13,0.01,0.99,0.09,43.93
13,0.01,0.99,0.09,45.66
13,-0.01,1.01,0.09,45.45
13,-0.00,1.00,0.09,43.10
13,-0.00,0.98,0.08,43.13
13,0.02,0.98,0.08,42.48
1,0.20,0.84,0.11,53.32
1,-0.10,1.15,0.11,53.92
1,-0.20,1.17,0.06,53.13
1,-0.20,0.89,0.06,45.05
1,0.06,0.89,0.11,49.44
1,0.20,0.79,0.11,49.44
1,0.21,1.08,0.13,44.29
1,-0.04,1.08,0.09,43.61
1,-0.20,1.21,0.09,43.61
1,0.00,0.96,0.06,44.97
1,0.00,0.97,0.10,49.46
1,0.22,0.79,0.10,49.33
1,0.06,0.99,0.12,54.03
1,0.06,1.22,0.08,46.45
1,-0.19,1.22,0.08,41.51
1,-0.08,1.04,0.05,41.51
1,-0.07,0.79,0.08,49.04
1,0.18,0.79,0.11,39.91
1,0.11,0.91,0.11,39.91
1,-0.17,1.19,0.10,42.99
1,-0.17,1.19,0.05,48.10
1,-0.13,1.12,0.05,48.08
1,0.14,0.83,0.07,46.52
1,0.14,0.84,0.11,43.49
1,0.18,0.84,0.11,50.56
1,-0.10,1.15,0.11,50.56
1,-0.10,1.17,0.07,45.29
1,-0.18,1.17,0.06,46.71
1,0.07,0.89,0.06,46.71
1,0.07,0.81,0.09,39.17
1,0.20,0.81,0.12,42.06
1,-0.05,1.07,0.12,42.06
1,-0.21,1.21,0.08,47.40
1,-0.21,1.21,0.05,46.17
1,-0.01,0.96,0.05,46.44
1,0.21,0.79,0.08,50.36
1,0.21,1.00,0.12,46.00
1,0.04,1.00,0.12,47.59
1,-0.19,1.22,0.09,47.59
1,-0.19,1.04,0.06,45.51
1,-0.07,1.04,0.02,44.68
1,0.18,0.80,0.08,44.68
1,0.11,0.92,0.10,40.46
1,0.11,0.92,0.10,55.47
1,-0.17,1.19,0.10,55.23
1,-0.13,1.11,0.06,42.69
1,-0.13,1.09,0.07,52.08
1,0.14,0.84,0.07,44.57
1,0.16,0.86,0.10,44.57
1,0.16,1.15,0.11,48.38
1,-0.11,1.15,0.07,39.84
1,-0.17,1.16,0.07,39.84
1,-0.17,0.89,0.07,43.07
1,0.08,0.89,0.10,43.21
1,0.20,0.81,0.10,43.21
1,-0.05,1.08,0.12,49.92
1,-0.05,1.08,0.07,41.26
1,-0.20,1.20,0.07,40.79
1,-0.00,0.96,0.07,40.01
1,-0.00,0.80,0.09,47.20
1,0.20,0.80,0.09,40.88
1,0.04,1.00,0.11,40.88
1,0.00,1.21,0.09,42.61
1,-0.19,1.21,0.12,50.67
1,-0.06,1.04,0.06,50.67
1,0.19,0.81,0.07,44.49
1,0.19,0.81,0.11,50.15
1,0.11,0.93,0.11,50.83
1,-0.17,1.19,0.10,50.83
1,-0.17,1.22,0.05,51.25
1,-0.13,1.09,0.05,44.94
1,0.13,0.84,0.07,44.94
1,0.13,0.85,0.10,45.87
1,0.15,0.85,0.11,50.55
1,-0.11,1.15,0.11,50.55
1,-0.17,1.16,0.07,45.86
1,-0.17,1.16,0.06,45.71
1,0.08,0.89,0.06,45.71
1,0.20,0.81,0.09,46.31
1,0.20,0.83,0.10,41.70
1,-0.04,1.08,0.10,42.13
1,-0.19,1.19,0.08,46.83
1,-0.19,0.96,0.06,46.01
1,0.00,0.96,0.06,46.48
1,0.19,0.80,0.08,46.48
1,0.21,1.00,0.10,46.37
1,0.02,1.00,0.08,49.16
1,-0.19,1.21,0.08,49.16
1,-0.05,1.03,0.07,40.64
1,-0.05,1.05,0.08,44.49
1,0.19,0.80,0.08,44.42
1,0.09,0.93,0.11,49.12
1,0.09,1.19,0.09,45.72
1,-0.16,1.19,0.09,46.67
1,-0.13,1.11,0.06,46.67
1,-0.18,0.84,0.06,50.16
1,0.13,0.84,0.10,44.94
1,0.15,0.86,0.10,44.94
1,-0.11,1.14,0.11,39.90
1,-0.11,1.14,0.07,44.31
1,-0.17,1.15,0.07,44.31
1,0.08,0.90,0.07,47.45
1,0.08,0.89,0.10,49.21
1,0.18,0.83,0.10,38.39
1,-0.05,1.07,0.12,38.39
1,-0.05,1.19,0.08,47.26
1,-0.18,1.19,0.06,51.95
1,0.01,0.96,0.06,51.95
1,0.00,0.81,0.09,45.46
1,0.19,0.81,0.11,41.38
1,0.01,1.01,0.11,41.38
1,-0.18,1.20,0.08,50.10
1,-0.18,1.22,0.05,48.94
1,-0.05,1.03,0.05,48.59
1,0.18,0.81,0.08,49.37
1,0.18,0.94,0.12,44.81
1,0.09,0.94,0.12,46.87
1,-0.16,1.18,0.10,46.87
1,-0.17,1.09,0.05,47.58
1,-0.11,1.09,0.01,46.21
1,0.14,0.85,0.07,46.21
1,0.13,0.88,0.10,46.75
1,0.13,0.88,0.11,43.88
1,-0.11,1.13,0.11,44.11
1,-0.15,1.15,0.07,48.81
1,-0.15,1.14,0.06,44.33
1,0.08,0.89,0.06,47.78
1,0.18,0.83,0.10,47.78
1,0.18,1.07,0.11,47.10
1,-0.06,1.07,0.09,43.08
1,-0.18,1.18,0.09,43.08
1,-0.17,0.96,0.06,45.59
1,0.02,0.96,0.09,48.32
1,0.19,0.82,0.09,48.32
1,0.02,1.01,0.11,50.13
1,0.02,1.00,0.08,36.34
1,-0.18,1.19,0.08,36.34
1,-0.05,1.03,0.06,45.74
1,-0.05,0.82,0.08,53.76
1,0.16,0.82,0.08,39.13
1,0.07,0.94,0.11,39.13
1,0.09,1.17,0.09,48.54
1,-0.16,1.17,0.12,49.62
1,-0.10,1.09,0.06,49.62
1,0.14,0.85,0.08,45.48
1,0.14,0.81,0.09,53.71
1,0.14,0.88,0.09,53.36
1,-0.11,1.14,0.10,49.44
1,-0.11,1.14,0.07,49.04
1,-0.15,1.14,0.07,43.04
1,0.08,0.90,0.07,43.04
1,0.11,0.84,0.09,44.15
1,0.17,0.84,0.11,43.40
1,-0.06,1.07,0.11,43.40
1,-0.17,1.18,0.07,44.03
1,-0.17,1.18,0.06,47.84
1,0.02,0.94,0.06,47.84
1,0.18,0.82,0.09,45.25
1,0.18,0.82,0.12,49.71
1,0.01,1.01,0.12,49.58
1,-0.18,1.18,0.09,42.53
1,-0.18,1.02,0.06,43.85
1,-0.05,1.02,0.02,42.81
1,0.17,0.82,0.08,42.81
1,0.14,0.94,0.11,46.92
1,0.07,0.94,0.08,44.71
1,-0.15,1.17,0.08,44.71
1,-0.10,1.09,0.06,47.89
1,-0.10,1.11,0.07,41.54
1,0.15,0.86,0.07,42.10
1,0.13,0.88,0.09,43.67
1,0.13,1.13,0.10,40.07
1,-0.12,1.13,0.10,43.97
1,-0.14,1.13,0.07,43.97
1,-0.16,0.90,0.07,44.60
1,0.09,0.90,0.09,50.87
1,0.16,0.84,0.09,50.87
1,-0.06,1.08,0.11,40.86
1,-0.06,1.08,0.08,50.99
1,-0.18,1.17,0.08,50.99
1,0.02,0.96,0.06,47.70
1,0.02,0.95,0.09,48.64
1,0.18,0.83,0.09,48.90
1,0.01,1.01,0.11,41.85
1,0.01,1.17,0.08,47.84
1,-0.17,1.17,0.06,45.15
1,-0.04,1.02,0.06,45.15
1,-0.01,0.83,0.08,47.05
1,0.18,0.83,0.12,44.64
1,0.07,0.94,0.12,44.64
1,-0.15,1.17,0.10,45.94
1,-0.15,1.15,0.06,44.07
1,-0.08,1.08,0.06,43.98
1,0.13,0.86,0.08,41.63
1,0.13,0.90,0.10,40.76
1,0.12,0.90,0.10,54.20
1,-0.12,1.13,0.11,54.20
1,-0.07,1.13,0.07,44.45
1,-0.13,1.13,0.06,49.11
1,0.08,0.90,0.06,49.11
1,0.15,0.85,0.09,39.19
1,0.15,0.85,0.11,45.85
1,-0.06,1.08,0.11,45.51
1,-0.17,1.16,0.08,40.81
1,-0.17,1.14,0.08,45.95
1,0.03,0.95,0.08,44.20
1,0.18,0.82,0.09,44.20
1,0.18,1.02,0.11,48.20
1,0.00,1.02,0.08,50.07
1,-0.17,1.16,0.08,50.07
1,-0.15,1.02,0.06,41.47
1,-0.02,1.02,0.08,41.20
1,0.16,0.84,0.08,41.20
1,0.07,0.95,0.09,50.22
1,0.07,0.98,0.09,50.72
1,-0.15,1.17,0.09,50.52
1,-0.09,1.07,0.08,40.33
1,-0.09,0.86,0.08,40.68
1,0.14,0.86,0.08,44.59
1,0.11,0.89,0.10,44.59
1,0.08,1.13,0.11,44.15
1,-0.11,1.13,0.12,44.40
1,-0.13,1.12,0.06,44.40
1,0.10,0.90,0.07,44.57
1,0.10,0.90,0.08,43.13
2,-0.03,1.16,0.08,43.30
2,-0.15,1.16,0.06,43.55
2,-0.02,1.01,0.06,43.55
2,0.16,0.84,0.08,49.29
2,0.16,0.84,0.10,47.47
2,0.06,0.96,0.10,47.38
2,-0.15,1.16,0.09,39.55
2,-0.15,1.08,0.07,46.96
2,-0.08,1.08,0.07,44.82
2,0.14,0.86,0.08,44.82
2,0.17,0.89,0.10,49.08
2,0.11,0.89,0.10,46.63
2,-0.12,1.12,0.10,46.63
2,-0.12,1.12,0.07,48.92
2,-0.12,1.12,0.07,47.29
2,0.09,0.90,0.07,47.01
2,0.14,0.87,0.09,53.28
2,0.14,0.83,0.10,43.44
2,-0.06,1.08,0.10,47.82
2,-0.15,1.16,0.08,47.82
2,-0.15,0.95,0.07,41.72
2,0.03,0.95,0.09,44.36
2,0.17,0.84,0.09,44.36
2,0.18,1.01,0.10,50.12
2,-0.00,1.01,0.09,47.87
2,-0.16,1.16,0.09,47.87
2,-0.02,1.01,0.05,47.12
2,-0.02,1.04,0.08,45.25
2,0.16,0.85,0.08,45.21
2,0.06,0.95,0.10,41.30
2,0.06,1.15,0.09,41.04
2,-0.14,1.15,0.09,44.74
2,-0.07,1.06,0.06,44.74
2,-0.12,0.86,0.09,49.24
2,0.13,0.86,0.10,48.40
2,0.11,0.90,0.10,48.40
2,-0.11,1.13,0.10,48.17
2,-0.11,1.13,0.07,45.63
2,-0.12,1.11,0.07,45.47
2,0.09,0.91,0.08,42.33
2,0.09,0.93,0.10,40.58
2,0.15,0.87,0.10,45.70
2,-0.07,1.07,0.11,45.70
2,-0.08,1.15,0.08,45.01
2,-0.15,1.15,0.07,47.23
2,0.03,0.95,0.07,47.23
2,0.16,0.85,0.10,46.41
2,0.16,0.85,0.10,49.92
2,-0.00,1.01,0.10,49.92
2,-0.15,1.15,0.08,47.86
2,-0.15,1.13,0.07,46.51
2,-0.02,1.00,0.07,46.59
2,0.16,0.84,0.08,47.37
2,0.16,0.96,0.10,47.00
2,0.05,0.96,0.10,42.81
2,-0.14,1.15,0.10,42.81
2,-0.14,1.06,0.07,48.94
2,-0.07,1.06,0.08,46.92
2,0.14,0.87,0.08,46.92
2,0.10,0.91,0.11,48.04
2,0.10,0.93,0.09,50.25
2,-0.10,1.12,0.09,50.79
2,-0.11,1.11,0.07,47.66
2,-0.11,0.91,0.08,44.27
2,0.09,0.91,0.08,46.51
2,0.13,0.87,0.09,46.51
2,0.18,1.08,0.10,52.52
2,-0.07,1.08,0.08,46.86
2,-0.14,1.14,0.08,46.86
2,0.04,0.96,0.06,50.99
2,0.04,0.96,0.09,45.24
2,0.15,0.85,0.09,44.68
2,-0.01,1.03,0.10,43.11
2,-0.01,1.03,0.07,47.15
2,-0.16,1.16,0.07,44.82
2,-0.01,1.01,0.07,44.82
2,-0.01,0.84,0.07,50.37
2,0.15,0.84,0.10,44.77
2,0.05,0.96,0.10,44.77
2,0.05,1.14,0.09,48.79
2,-0.14,1.14,0.07,44.61
2,-0.06,1.06,0.07,44.61
2,0.13,0.87,0.08,47.27
2,0.13,0.85,0.09,41.14
2,0.10,0.91,0.09,41.34
2,-0.11,1.12,0.10,41.34
2,-0.11,1.10,0.08,48.74
2,-0.10,1.10,0.08,50.60
2,0.09,0.92,0.08,50.60
2,0.08,0.88,0.10,44.56
2,0.14,0.88,0.09,53.28
2,-0.07,1.08,0.09,53.28
2,-0.14,1.14,0.07,48.46
2,-0.14,1.14,0.07,49.09
2,0.04,0.95,0.07,48.96
2,0.15,0.86,0.08,46.61
2,0.15,0.84,0.11,41.78
2,-0.02,1.02,0.11,46.87
2,-0.15,1.15,0.08,46.87
2,-0.13,1.00,0.07,46.71
2,-0.01,1.00,0.09,42.77
2,0.15,0.86,0.09,42.77
2,0.04,0.96,0.10,39.05
2,0.04,0.96,0.09,43.92
2,-0.14,1.13,0.09,43.92
2,-0.06,1.06,0.06,43.15
2,-0.06,1.06,0.07,52.11
2,0.13,0.87,0.07,51.72
2,0.09,0.91,0.10,50.15
2,0.09,1.12,0.10,45.28
2,-0.11,1.12,0.10,46.08
2,-0.10,1.09,0.07,46.08
2,-0.09,0.92,0.08,44.72
2,0.09,0.92,0.09,47.97
2,0.12,0.88,0.09,47.97
2,-0.07,1.07,0.10,42.16
2,-0.07,1.07,0.08,38.60
2,-0.13,1.13,0.08,38.45
2,0.04,0.95,0.07,47.85
2,0.04,0.87,0.09,38.46
2,0.15,0.87,0.09,55.91
2,-0.01,1.03,0.11,55.91
2,-0.02,1.14,0.09,50.47
2,-0.15,1.14,0.07,50.67
2,-0.02,1.00,0.07,50.67
2,0.15,0.86,0.08,39.03
2,0.15,0.86,0.10,46.09
2,0.04,0.98,0.10,46.14
2,-0.14,1.13,0.08,48.49
2,-0.14,1.18,0.07,43.68
2,-0.06,1.05,0.07,39.16
2,0.13,0.88,0.08,39.16
2,0.13,0.92,0.10,50.32
2,0.08,0.92,0.09,51.44
2,-0.11,1.11,0.09,51.44
2,-0.11,1.09,0.07,43.23
2,-0.11,1.09,0.07,48.02
2,0.10,0.91,0.07,48.02
2,0.11,0.88,0.10,43.49
2,0.11,0.89,0.09,44.56
2,-0.07,1.08,0.09,43.92
2,-0.13,1.12,0.07,47.05
2,-0.13,0.95,0.08,48.16
2,0.05,0.95,0.08,45.78
2,0.14,0.87,0.09,45.78
2,0.16,1.02,0.10,45.86
2,-0.03,1.02,0.08,44.83
2,-0.14,1.12,0.08,44.83
2,-0.01,0.99,0.07,44.64
2,-0.01,0.99,0.08,47.44
2,0.14,0.87,0.08,47.55
2,0.03,0.97,0.11,49.12
2,0.03,0.95,0.09,44.34
2,-0.14,1.14,0.09,45.68
2,-0.05,1.05,0.06,45.68
2,-0.05,0.89,0.08,40.88
2,0.13,0.89,0.10,49.34
2,0.09,0.93,0.10,49.34
2,-0.12,1.11,0.10,46.37
2,-0.12,1.11,0.08,45.41
2,-0.09,1.09,0.08,45.41
2,0.10,0.91,0.08,50.95
2,0.10,0.89,0.11,45.26
2,0.11,0.89,0.11,45.14
2,-0.07,1.07,0.10,44.36
2,-0.07,1.12,0.07,47.24
2,-0.13,1.12,0.07,42.36
2,0.05,0.95,0.07,42.36
2,0.01,0.87,0.09,46.00
2,0.14,0.87,0.10,49.47
2,-0.02,1.03,0.10,49.47
2,-0.13,1.14,0.08,41.16
2,-0.13,1.13,0.09,46.56
2,-0.00,1.01,0.09,46.32
2,0.14,0.86,0.09,47.10
2,0.14,0.98,0.10,47.33
2,0.04,0.98,0.10,49.16
2,-0.13,1.13,0.09,49.16
2,-0.17,1.05,0.08,46.00
2,-0.04,1.05,0.09,45.13
2,0.13,0.88,0.09,45.13
2,0.06,0.93,0.09,44.26
2,0.06,0.93,0.09,45.17
2,-0.11,1.11,0.09,44.66
2,-0.08,1.08,0.07,42.31
2,-0.08,1.10,0.07,39.53
2,0.10,0.91,0.07,40.28
2,0.11,0.89,0.10,40.28
2,0.11,1.07,0.09,50.60
2,-0.08,1.07,0.07,48.11
2,-0.12,1.12,0.07,48.11
2,-0.08,0.95,0.07,49.15
2,0.05,0.95,0.08,44.18
2,0.13,0.88,0.08,44.18
2,-0.02,1.03,0.10,45.59
2,-0.02,1.01,0.08,43.36
2,-0.14,1.13,0.08,43.74
2,0.01,0.99,0.07,43.74
2,0.01,0.87,0.08,43.71
2,0.14,0.87,0.08,48.62
2,0.02,0.97,0.10,48.62
2,0.06,1.13,0.09,43.99
2,-0.13,1.13,0.06,42.33
2,-0.05,1.04,0.06,42.33
2,0.13,0.89,0.08,51.29
2,0.13,0.89,0.09,47.11
2,0.07,0.93,0.09,47.14
2,-0.11,1.11,0.09,46.36
2,-0.11,1.08,0.06,50.63
2,-0.08,1.08,0.06,47.27
2,0.09,0.92,0.07,47.27
2,0.09,0.90,0.10,41.02
2,0.10,0.90,0.10,40.84
2,-0.07,1.07,0.10,40.84
2,-0.11,1.12,0.07,41.84
2,-0.11,1.12,0.07,47.49
2,0.05,0.95,0.07,47.49
2,0.14,0.87,0.10,39.88
2,0.14,0.84,0.10,47.19
2,-0.03,1.03,0.10,47.29
2,-0.14,1.13,0.09,42.59
2,-0.14,0.99,0.08,41.44
2,0.01,0.99,0.08,49.28
2,0.13,0.88,0.08,49.28
2,0.15,0.98,0.10,46.30
2,0.02,0.98,0.07,45.03
2,-0.13,1.12,0.07,45.03
2,-0.04,1.03,0.07,45.07
2,-0.04,1.00,0.09,47.53
2,0.12,0.88,0.09,47.53
2,0.07,0.93,0.10,43.61
2,0.07,1.11,0.09,45.82
2,-0.11,1.11,0.09,48.34
3,0.06,1.00,0.10,46.58
3,0.13,0.87,0.10,46.22
3,-0.04,1.03,0.11,40.74
3,-0.04,1.12,0.08,42.79
3,-0.13,1.12,0.08,44.40
3,0.01,1.00,0.08,44.40
3,0.01,0.88,0.09,48.54
3,0.14,0.88,0.10,48.19
3,0.01,0.99,0.10,48.19
3,-0.13,1.11,0.08,44.11
3,-0.13,1.11,0.07,44.61
3,-0.04,1.03,0.07,44.79
3,0.13,0.89,0.07,50.28
3,0.13,0.88,0.10,44.74
3,0.06,0.94,0.10,43.41
3,-0.11,1.10,0.09,43.41
3,-0.08,1.08,0.08,44.91
3,-0.08,1.08,0.08,45.32
3,0.08,0.91,0.08,45.32
3,0.10,0.90,0.09,52.15
3,0.10,0.90,0.09,51.43
3,-0.08,1.07,0.09,51.43
3,-0.11,1.09,0.09,52.13
3,-0.11,1.07,0.09,40.48
3,0.04,0.94,0.09,39.95
3,0.12,0.88,0.10,42.30
3,0.12,1.03,0.10,44.37
3,-0.04,1.03,0.08,47.35
3,-0.13,1.12,0.08,47.35
3,-0.18,0.99,0.08,40.62
3,0.01,0.99,0.09,48.89
3,0.13,0.88,0.09,48.89
3,0.01,0.98,0.10,47.14
3,0.01,0.99,0.08,42.47
3,-0.13,1.11,0.08,42.83
3,-0.03,1.02,0.07,38.91
3,-0.03,0.90,0.09,43.40
3,0.12,0.90,0.09,45.01
3,0.06,0.95,0.08,45.01
3,0.02,1.10,0.09,44.16
3,-0.10,1.10,0.08,47.18
3,-0.07,1.07,0.08,47.18
3,0.09,0.92,0.07,42.94
3,0.09,0.92,0.09,41.03
3,0.10,0.91,0.09,40.80
3,-0.08,1.07,0.10,49.41
3,-0.08,1.10,0.07,42.93
3,-0.10,1.10,0.07,45.89
3,0.06,0.95,0.08,45.89
3,0.06,0.89,0.08,41.35
3,0.12,0.89,0.09,51.51
3,-0.03,1.03,0.09,51.51
3,-0.06,1.12,0.08,44.76
3,-0.12,1.12,0.06,43.82
3,0.02,0.99,0.06,43.82
3,0.13,0.88,0.08,44.45
3,0.13,0.92,0.09,45.90
3,0.01,0.99,0.09,45.75
3,-0.11,1.11,0.08,44.97
3,-0.11,1.02,0.07,47.94
3,-0.03,1.02,0.07,39.14
3,0.12,0.90,0.08,39.14
3,0.06,0.96,0.10,40.53
3,0.06,0.96,0.09,49.56
3,-0.11,1.10,0.09,49.56
3,-0.07,1.06,0.07,52.23
3,-0.07,1.06,0.07,47.24
3,0.09,0.92,0.07,47.63
3,0.10,0.92,0.09,42.93
3,0.10,1.07,0.09,43.82
3,-0.08,1.07,0.09,37.89
3,-0.10,1.09,0.08,37.89
3,-0.06,0.95,0.08,41.10
3,0.06,0.95,0.09,47.29
3,0.11,0.89,0.09,47.29
3,-0.04,1.03,0.10,47.74
3,-0.04,1.03,0.08,44.50
3,-0.12,1.11,0.08,44.50
3,0.02,0.99,0.07,49.52
3,0.02,0.94,0.09,45.93
3,0.13,0.88,0.09,45.88
3,0.00,0.99,0.09,49.01
3,0.00,1.11,0.07,47.52
3,-0.12,1.11,0.08,43.96
3,-0.03,1.02,0.08,43.96
3,-0.02,0.90,0.09,42.06
3,0.11,0.90,0.09,47.51
3,0.06,0.95,0.09,47.51
3,-0.11,1.10,0.09,45.84
3,-0.11,1.06,0.07,40.95
3,-0.07,1.06,0.07,41.01
3,0.10,0.92,0.08,48.06
3,0.10,0.92,0.09,47.28
3,0.09,0.92,0.09,50.31
3,-0.07,1.07,0.09,50.31
3,-0.10,1.09,0.08,41.45
3,-0.10,1.09,0.08,52.56
3,0.06,0.95,0.08,52.56
3,0.11,0.90,0.09,46.80
3,0.11,0.90,0.10,42.21
3,-0.03,1.03,0.10,42.03
3,-0.12,1.10,0.08,49.08
3,-0.12,1.12,0.08,50.07
3,0.02,0.99,0.08,43.26
3,0.11,0.89,0.09,43.26
3,0.11,1.00,0.09,48.38
3,0.00,1.00,0.08,41.38
3,-0.11,1.11,0.08,41.38
3,-0.09,1.03,0.08,49.48
3,-0.02,1.03,0.09,49.22
3,0.12,0.90,0.09,49.22
3,0.05,0.96,0.09,39.65
3,0.05,0.97,0.09,42.38
3,-0.11,1.10,0.09,42.68
3,-0.06,1.07,0.07,45.82
3,-0.06,0.91,0.08,44.28
3,0.10,0.91,0.08,39.83
3,0.09,0.93,0.09,39.83
3,0.11,1.07,0.09,45.73
3,-0.08,1.07,0.08,48.00
3,-0.10,1.08,0.08,48.00
3,0.06,0.95,0.08,46.57
3,0.06,0.95,0.09,40.67
3,0.11,0.91,0.09,41.32
3,-0.04,1.04,0.09,42.89
3,-0.04,1.04,0.08,42.54
3,-0.10,1.10,0.08,46.74
3,0.02,0.98,0.08,46.74
3,0.06,0.89,0.08,49.90
3,0.12,0.89,0.09,38.66
3,0.01,1.00,0.09,38.66
3,-0.11,1.11,0.08,46.54
3,-0.11,1.11,0.07,45.65
3,-0.03,1.02,0.07,45.65
3,0.11,0.90,0.08,46.39
3,0.11,0.90,0.09,53.24
3,0.04,0.96,0.09,53.42
3,-0.10,1.09,0.08,47.15
3,-0.10,1.05,0.08,49.13
3,-0.06,1.05,0.08,40.68
3,0.09,0.92,0.09,40.68
3,0.09,0.92,0.09,39.86
3,0.09,0.92,0.09,39.42
3,-0.07,1.07,0.09,39.42
3,-0.09,1.08,0.07,43.86
3,-0.09,1.08,0.09,45.78
3,0.06,0.95,0.09,45.38
3,0.10,0.91,0.09,42.25
3,0.10,1.04,0.10,47.07
3,-0.05,1.04,0.10,41.79
3,-0.11,1.10,0.08,41.79
3,-0.10,0.98,0.08,50.36
3,0.02,0.98,0.09,47.39
3,0.12,0.90,0.09,47.39
3,-0.00,1.00,0.10,51.67
3,-0.00,1.00,0.08,50.93
3,-0.11,1.10,0.08,50.93
3,-0.02,1.02,0.08,44.67
3,-0.02,1.03,0.09,41.19
3,0.11,0.90,0.09,44.47
3,0.04,0.96,0.09,44.47
3,0.04,1.09,0.09,44.17
3,-0.11,1.09,0.07,43.60
3,-0.05,1.05,0.07,43.60
3,-0.05,0.92,0.09,44.25
3,0.08,0.92,0.09,44.09
3,0.08,0.93,0.09,44.09
3,-0.08,1.07,0.09,42.51
3,-0.08,1.07,0.07,42.17
3,-0.09,1.07,0.07,41.99
3,0.06,0.95,0.08,43.56
3,0.06,0.91,0.09,44.76
3,0.10,0.91,0.09,41.20
3,-0.04,1.03,0.11,41.20
3,-0.03,1.10,0.09,45.50
3,-0.09,1.10,0.09,47.57
3,0.03,0.98,0.09,47.57
3,0.11,0.91,0.09,48.93
3,0.11,0.91,0.10,44.15
3,-0.00,1.00,0.10,43.89
3,-0.11,1.10,0.08,45.46
3,-0.11,1.07,0.07,43.13
3,-0.01,1.01,0.07,52.49
3,0.10,0.90,0.09,52.49
3,0.10,0.97,0.09,47.59
3,0.04,0.97,0.09,48.07
3,-0.10,1.10,0.09,48.07
3,-0.05,1.05,0.08,48.96
3,-0.05,1.05,0.08,52.83
3,0.09,0.93,0.08,52.83
3,0.07,0.94,0.09,45.73
3,0.07,0.88,0.09,46.00
3,-0.07,1.06,0.09,46.03
3,-0.08,1.08,0.09,48.38
3,-0.08,0.95,0.07,45.26
3,0.06,0.95,0.07,54.90
3,0.11,0.91,0.08,54.90
3,0.08,1.04,0.09,47.99
3,-0.04,1.04,0.08,45.50
3,-0.10,1.10,0.08,45.50
3,0.02,0.98,0.09,37.58
3,0.02,0.97,0.08,46.93
3,0.11,0.91,0.08,47.32
3,-0.01,1.00,0.09,53.58
3,-0.01,1.10,0.08,42.98
3,-0.10,1.10,0.08,53.75
3,-0.02,1.02,0.09,53.75
3,-0.02,0.90,0.09,45.79
3,0.10,0.90,0.09,44.94
3,0.04,0.97,0.09,44.94
3,-0.10,1.09,0.08,45.32
3,-0.10,1.09,0.08,41.64
3,-0.05,1.04,0.08,41.64
3,0.09,0.92,0.08,47.47
3,0.09,0.93,0.09,49.62
3,0.07,0.93,0.09,49.65
3,-0.08,1.07,0.09,45.73
3,-0.08,1.08,0.08,46.81
3,-0.08,1.08,0.08,48.60
3,0.07,0.96,0.08,48.60
3,0.10,0.92,0.09,44.48
3,0.10,0.92,0.09,45.92
3,-0.04,1.04,0.09,45.92
3,-0.10,1.09,0.08,45.65
3,-0.10,1.10,0.08,42.67
3,0.03,0.98,0.08,42.36
3,0.10,0.90,0.09,47.84
3,0.10,1.00,0.10,42.85
3,-0.01,1.00,0.10,44.49
3,-0.10,1.09,0.09,44.49
3,-0.07,1.02,0.08,41.53
3,-0.01,1.02,0.10,42.84
3,0.10,0.91,0.10,42.84
4,-0.08,1.07,0.09,44.72
4,-0.07,1.07,0.07,44.72
4,-0.07,0.95,0.08,43.02
4,0.06,0.95,0.09,42.69
4,0.09,0.92,0.09,42.69
4,-0.05,1.04,0.10,49.56
4,-0.05,1.04,0.08,46.50
4,-0.09,1.09,0.08,46.50
4,0.03,0.98,0.08,42.65
4,0.03,0.98,0.09,51.96
4,0.11,0.92,0.09,42.22
4,-0.00,1.00,0.09,42.22
4,-0.00,1.09,0.07,42.29
4,-0.10,1.09,0.08,51.30
4,-0.01,1.01,0.08,51.30
4,-0.02,0.91,0.09,44.09
4,0.10,0.91,0.10,43.71
4,0.03,0.97,0.10,43.71
4,-0.09,1.08,0.09,42.04
4,-0.09,1.10,0.07,46.96
4,-0.04,1.04,0.07,47.13
4,0.08,0.93,0.08,47.13
4,0.08,0.95,0.09,45.25
4,0.07,0.95,0.09,37.56
4,-0.07,1.07,0.08,37.56
4,-0.08,1.07,0.07,40.77
4,-0.08,1.07,0.08,41.08
4,0.05,0.94,0.08,41.08
4,0.09,0.92,0.09,44.71
4,0.09,0.92,0.09,50.76
4,-0.05,1.04,0.09,50.16
4,-0.09,1.08,0.07,50.94
4,-0.09,1.10,0.08,48.56
4,0.03,0.98,0.08,46.82
4,0.11,0.91,0.08,46.82
4,0.11,1.01,0.09,42.92
4,-0.01,1.01,0.09,43.11
4,-0.09,1.09,0.09,43.11
4,-0.01,1.02,0.08,47.08
4,-0.01,1.02,0.09,38.40
4,0.10,0.92,0.09,38.40
4,0.03,0.97,0.09,42.44
4,0.03,0.96,0.09,50.04
4,-0.08,1.09,0.09,49.71
4,-0.04,1.04,0.09,55.98
4,-0.04,0.94,0.08,44.39
4,0.09,0.94,0.08,55.00
4,0.06,0.94,0.08,55.00
4,0.06,1.06,0.09,43.40
4,-0.06,1.06,0.07,39.90
4,-0.07,1.06,0.07,39.90
4,0.06,0.95,0.09,42.39
4,0.06,0.99,0.09,42.89
4,0.08,0.93,0.09,42.97
4,-0.04,1.04,0.09,40.62
4,-0.04,1.08,0.07,44.51
4,-0.09,1.08,0.07,50.93
4,0.04,0.97,0.08,50.93
4,0.03,0.92,0.09,41.21
4,0.09,0.92,0.09,49.06
4,-0.01,1.01,0.09,49.06
4,-0.10,1.08,0.09,43.67
4,-0.10,1.08,0.08,46.68
4,-0.01,1.02,0.08,46.45
4,0.10,0.92,0.08,44.10
4,0.10,0.92,0.09,48.41
4,0.03,0.98,0.09,41.91
4,-0.09,1.08,0.09,41.91
4,-0.09,1.04,0.08,45.68
4,-0.04,1.04,0.08,42.26
4,0.09,0.92,0.08,42.26
4,0.12,0.95,0.09,46.40
4,0.05,0.95,0.09,44.61
4,-0.07,1.07,0.09,44.61
4,-0.07,1.06,0.08,44.12
4,-0.07,1.01,0.09,40.07
4,0.06,0.95,0.09,40.23
4,0.08,0.93,0.09,55.12
4,0.08,1.03,0.08,50.78
4,-0.05,1.03,0.08,41.82
4,-0.09,1.08,0.08,41.82
4,-0.09,0.98,0.08,50.62
4,0.03,0.98,0.08,42.75
4,0.09,0.92,0.08,42.75
4,-0.01,1.01,0.09,41.55
4,-0.01,1.01,0.08,48.82
4,-0.10,1.08,0.08,48.66
4,-0.01,1.00,0.08,43.18
4,-0.01,0.98,0.08,49.71
4,0.09,0.92,0.08,44.36
4,0.03,0.98,0.09,44.36
4,0.03,1.07,0.08,51.88
4,-0.09,1.07,0.08,41.35
4,-0.04,1.04,0.08,41.35
4,0.08,0.93,0.09,40.48
4,0.08,0.93,0.10,47.88
4,0.06,0.95,0.10,47.88
4,-0.07,1.07,0.08,42.85
4,-0.07,1.12,0.07,42.46
4,-0.07,1.06,0.07,42.92
4,0.07,0.96,0.08,44.49
4,0.07,0.93,0.09,43.02
4,0.08,0.93,0.09,43.65
4,-0.04,1.03,0.09,43.65
4,-0.02,1.08,0.09,46.49
4,-0.09,1.08,0.08,46.46
4,0.04,0.98,0.08,46.46
4,0.09,0.91,0.10,44.28
4,0.09,0.89,0.09,51.74
4,-0.01,1.02,0.09,52.40
4,-0.09,1.08,0.08,44.56
4,-0.09,1.00,0.08,43.01
4,0.00,1.00,0.08,38.98
4,0.10,0.92,0.09,38.98
4,0.08,0.98,0.09,47.61
4,0.02,0.98,0.08,46.34
4,-0.09,1.08,0.08,46.34
4,-0.04,1.03,0.09,42.95
4,-0.04,1.03,0.08,50.40
4,0.08,0.93,0.08,50.40
4,0.05,0.96,0.08,48.05
4,0.05,0.94,0.08,44.53
4,-0.07,1.06,0.08,51.72
4,-0.06,1.05,0.07,51.72
4,-0.06,0.95,0.08,46.57
4,0.07,0.95,0.09,48.25
4,0.08,0.93,0.09,48.25
4,0.08,1.04,0.09,46.68
4,-0.05,1.04,0.08,51.47
4,-0.08,1.08,0.08,51.47
4,0.04,0.98,0.08,47.13
4,0.04,0.99,0.08,45.53
4,0.09,0.93,0.08,46.09
4,-0.02,1.01,0.10,52.35
4,-0.02,1.07,0.07,46.66
4,-0.09,1.07,0.07,49.38
4,-0.00,1.00,0.08,49.38
4,-0.03,0.92,0.08,45.64
4,0.10,0.92,0.09,54.95
4,0.02,0.98,0.09,54.95
4,-0.08,1.07,0.08,54.36
4,-0.08,1.07,0.08,45.14
4,-0.03,1.02,0.08,44.82
4,0.08,0.93,0.09,48.73
4,0.08,0.89,0.09,51.14
4,0.05,0.96,0.09,45.70
4,-0.07,1.06,0.08,45.70
4,-0.07,1.04,0.08,38.19
4,-0.05,1.04,0.08,46.04
4,0.06,0.95,0.08,46.04
4,0.08,0.93,0.09,47.71
4,0.08,0.93,0.09,40.81
4,-0.05,1.04,0.09,40.81
4,-0.08,1.07,0.08,58.56
4,-0.08,1.10,0.08,55.97
4,0.04,0.98,0.08,56.03
4,0.09,0.93,0.08,38.01
4,0.09,1.01,0.08,47.17
4,-0.01,1.01,0.08,48.21
4,-0.09,1.08,0.09,48.21
4,-0.06,1.00,0.09,45.91
4,-0.00,1.00,0.09,54.32
4,0.09,0.93,0.09,54.32
4,0.02,0.99,0.09,46.95
4,0.02,0.95,0.08,50.99
4,-0.08,1.08,0.08,50.91
4,-0.02,1.04,0.08,42.29
4,-0.02,0.93,0.08,51.80
4,0.09,0.93,0.08,42.87
4,0.05,0.96,0.09,42.87
4,0.05,1.05,0.08,47.96
4,-0.07,1.05,0.08,46.61
4,-0.06,1.05,0.08,46.61
4,0.06,0.95,0.08,46.54
4,0.06,0.95,0.09,48.50
4,0.06,0.95,0.09,48.50
4,-0.04,1.05,0.09,45.60
4,-0.04,1.00,0.07,45.30
4,-0.08,1.06,0.07,51.67
4,0.04,0.98,0.08,51.67
4,0.04,0.93,0.09,41.00
4,0.09,0.93,0.08,40.93
4,-0.02,1.01,0.08,40.93
4,-0.02,1.07,0.08,44.48
4,-0.08,1.07,0.07,47.34
4,0.01,1.00,0.07,47.34
4,0.09,0.92,0.09,44.78
4,0.09,0.93,0.09,39.57
4,0.01,0.99,0.09,39.13
4,-0.08,1.07,0.08,53.23
4,-0.08,1.03,0.07,47.02
4,-0.03,1.03,0.07,51.20
4,0.09,0.94,0.08,51.20
4,0.10,0.97,0.10,49.84
4,0.04,0.97,0.08,49.50
4,-0.07,1.07,0.08,49.50
4,-0.05,1.04,0.08,44.25
4,-0.05,1.04,0.08,54.00
4,0.06,0.95,0.08,54.15
4,0.07,0.94,0.09,43.96
4,0.07,0.98,0.09,50.52
4,-0.04,1.05,0.09,46.62
4,-0.07,1.06,0.08,46.62
4,-0.07,0.98,0.08,46.84
4,0.03,0.98,0.09,48.45
4,0.08,0.94,0.09,48.45
4,0.11,1.02,0.09,41.03
4,-0.01,1.02,0.08,50.53
4,-0.09,1.07,0.08,50.53
4,0.01,1.00,0.08,43.90
4,0.01,0.99,0.09,52.91
4,0.09,0.93,0.09,53.05
4,0.00,0.98,0.09,48.35
4,0.00,1.07,0.09,46.18
4,-0.09,1.07,0.09,42.97
4,-0.02,1.03,0.08,42.97
4,-0.04,0.94,0.09,46.89
4,0.08,0.94,0.10,40.16
4,0.04,0.96,0.10,40.16
4,-0.07,1.06,0.08,40.85
4,-0.07,1.04,0.09,42.98
4,-0.05,1.04,0.09,42.89
4,0.06,0.96,0.09,43.67
4,0.06,0.95,0.08,41.93
4,0.07,0.95,0.08,46.68
4,-0.05,1.04,0.09,46.68
4,-0.01,1.06,0.08,41.79
4,-0.07,1.06,0.08,45.47
4,0.02,0.96,0.08,45.47
4,0.08,0.94,0.09,47.69
4,0.08,0.94,0.09,45.75
4,-0.03,1.01,0.09,45.75
4,-0.08,1.07,0.08,49.41
5,0.09,0.94,0.08,48.68
5,0.04,0.97,0.09,47.00
5,0.04,0.97,0.09,51.14
5,-0.07,1.06,0.09,51.54
5,-0.04,1.05,0.08,42.14
5,-0.04,1.02,0.09,46.51
5,0.06,0.96,0.09,49.37
5,0.07,0.95,0.09,49.37
5,0.07,1.04,0.09,47.15
5,-0.05,1.04,0.09,48.69
5,-0.06,1.06,0.09,48.69
5,0.04,0.97,0.09,53.20
5,0.04,0.97,0.09,52.55
5,0.07,0.94,0.09,52.55
5,-0.02,1.02,0.08,43.37
5,-0.02,1.00,0.09,44.73
5,-0.08,1.06,0.09,44.78
5,0.01,1.00,0.09,43.21
5,0.01,0.93,0.08,37.38
5,0.08,0.93,0.08,45.29
5,0.01,0.99,0.09,45.29
5,0.05,1.07,0.08,44.03
5,-0.08,1.07,0.08,48.06
5,-0.02,1.02,0.08,48.06
5,0.07,0.94,0.10,44.04
5,0.07,0.94,0.07,44.66
5,0.03,0.97,0.07,45.15
5,-0.07,1.06,0.09,45.93
5,-0.07,1.11,0.08,52.44
5,-0.05,1.04,0.08,37.80
5,0.07,0.95,0.08,37.80
5,0.12,0.95,0.10,47.07
5,0.06,0.95,0.09,40.25
5,-0.05,1.04,0.09,40.25
5,-0.06,1.05,0.08,48.31
5,-0.06,1.05,0.08,49.79
5,0.04,0.97,0.08,49.79
5,0.07,0.94,0.09,46.71
5,0.07,0.96,0.09,55.77
5,-0.03,1.02,0.09,55.73
5,-0.07,1.07,0.09,38.49
5,-0.07,0.99,0.09,51.31
5,0.01,0.99,0.09,49.27
5,0.08,0.93,0.08,49.27
5,0.07,0.99,0.09,47.43
5,0.01,0.99,0.09,49.78
5,-0.07,1.06,0.09,49.78
5,-0.02,1.02,0.08,41.65
5,-0.02,1.00,0.09,44.02
5,0.07,0.94,0.09,43.95
5,0.03,0.97,0.09,40.82
5,0.03,1.06,0.08,41.46
5,-0.06,1.06,0.08,42.79
5,-0.04,1.03,0.08,42.79
5,-0.00,0.96,0.08,47.63
5,0.06,0.96,0.09,53.35
5,0.05,0.95,0.09,53.35
5,-0.04,1.04,0.09,48.74
5,-0.04,1.04,0.07,46.90
5,-0.06,1.06,0.07,46.90
5,0.04,0.97,0.08,55.68
5,0.04,0.94,0.09,42.99
5,0.07,0.94,0.09,44.71
5,-0.02,1.02,0.08,44.71
5,-0.02,1.05,0.08,46.97
5,-0.08,1.05,0.09,42.73
5,0.01,0.99,0.09,42.73
5,0.01,0.93,0.09,43.79
5,0.08,0.93,0.09,45.95
5,0.01,1.00,0.09,45.95
5,-0.07,1.07,0.08,41.92
5,-0.07,1.08,0.08,41.89
5,-0.01,1.01,0.08,41.93
5,0.08,0.95,0.08,53.68
5,0.08,0.97,0.08,47.55
5,0.03,0.97,0.08,43.04
5,-0.06,1.05,0.09,43.04
5,-0.04,1.04,0.07,47.82
5,-0.04,1.04,0.08,39.11
5,0.06,0.95,0.08,39.11
5,0.06,0.95,0.09,48.84
5,0.06,0.95,0.09,47.95
5,-0.05,1.04,0.09,47.94
5,-0.06,1.05,0.09,44.81
5,-0.06,1.03,0.08,46.56
5,0.05,0.97,0.08,50.22
5,0.07,0.94,0.09,50.22
5,0.07,1.01,0.09,47.27
5,-0.03,1.01,0.08,49.01
5,-0.08,1.06,0.08,49.01
5,-0.11,0.99,0.08,48.15
5,0.02,0.99,0.08,43.20
5,0.07,0.93,0.08,43.20
5,0.01,1.00,0.09,50.50
5,0.01,0.99,0.09,50.47
5,-0.07,1.06,0.09,50.58
5,-0.00,1.01,0.08,44.31
5,-0.00,0.95,0.09,40.68
5,0.06,0.95,0.09,47.21
5,0.03,0.98,0.09,47.21
5,0.00,1.05,0.09,53.56
5,-0.06,1.05,0.08,46.19
5,-0.03,1.03,0.08,46.19
5,0.06,0.95,0.09,46.34
5,0.06,0.95,0.09,41.05
5,0.05,0.95,0.09,41.21
5,-0.05,1.04,0.08,49.05
5,-0.05,1.05,0.08,42.86
5,-0.06,1.05,0.08,43.74
5,0.04,0.97,0.09,43.74
5,0.00,0.95,0.08,43.34
5,0.07,0.95,0.09,39.46
5,-0.04,1.02,0.09,39.46
5,-0.07,1.06,0.09,41.92
5,-0.07,1.06,0.09,41.38
5,0.02,0.99,0.09,41.38
5,0.07,0.93,0.09,36.10
5,0.07,0.94,0.09,38.58
5,-0.00,1.00,0.09,38.69
5,-0.07,1.06,0.08,37.12
5,-0.07,1.01,0.07,48.46
5,-0.01,1.01,0.09,48.65
5,0.07,0.94,0.09,48.65
5,0.09,0.98,0.09,48.57
5,0.03,0.98,0.08,39.61
5,-0.06,1.06,0.08,39.61
5,-0.04,1.03,0.08,41.42
5,-0.04,1.02,0.08,44.39
5,0.06,0.96,0.08,43.88
5,0.04,0.95,0.08,49.36
5,0.04,1.05,0.09,50.65
5,-0.05,1.05,0.09,37.35
5,-0.06,1.05,0.08,37.35
5,-0.02,0.97,0.09,41.50
5,0.04,0.97,0.09,50.43
5,0.07,0.95,0.09,50.43
5,-0.03,1.03,0.09,46.18
5,-0.03,1.03,0.07,46.59
5,-0.07,1.06,0.07,46.19
5,0.02,0.99,0.08,46.97
5,0.02,0.95,0.08,45.24
5,0.07,0.95,0.08,46.98
5,-0.00,1.00,0.09,46.98
5,-0.00,1.05,0.08,50.04
5,-0.07,1.05,0.07,44.79
5,-0.01,1.01,0.07,44.79
5,-0.05,0.95,0.08,49.40
5,0.08,0.95,0.09,50.52
5,0.02,0.97,0.09,50.52
5,-0.06,1.05,0.09,49.47
5,-0.06,1.03,0.09,49.71
5,-0.04,1.03,0.09,49.50
5,0.06,0.95,0.08,48.71
5,0.06,0.96,0.09,44.87
5,0.04,0.96,0.09,47.52
5,-0.04,1.03,0.08,47.52
5,-0.05,1.04,0.08,46.65
5,-0.05,1.04,0.09,42.50
5,0.04,0.97,0.09,42.50
5,0.06,0.95,0.09,40.48
5,0.06,0.96,0.09,42.56
5,-0.03,1.02,0.09,42.99
5,-0.06,1.05,0.09,43.77
5,-0.06,0.99,0.09,49.30
5,0.02,0.99,0.09,49.45
5,0.07,0.94,0.08,49.45
5,0.06,1.00,0.08,47.05
5,0.00,1.00,0.09,53.08
5,-0.06,1.05,0.09,53.08
5,-0.00,1.01,0.08,43.45
5,-0.00,1.01,0.09,42.81
5,0.06,0.95,0.09,42.81
5,0.02,0.97,0.08,38.86
5,0.02,0.99,0.08,48.75
5,-0.07,1.05,0.08,48.79
5,-0.03,1.04,0.07,38.60
5,-0.03,0.96,0.09,48.94
5,0.06,0.96,0.09,45.24
5,0.05,0.96,0.09,45.24
5,0.02,1.04,0.09,42.09
5,-0.04,1.04,0.08,41.28
5,-0.04,1.05,0.08,41.28
5,0.04,0.97,0.09,41.03
5,0.04,0.96,0.09,40.35
5,0.06,0.96,0.09,39.91
5,-0.03,1.02,0.09,48.53
5,-0.03,1.06,0.07,44.99
5,-0.05,1.06,0.07,46.25
5,0.02,0.98,0.08,46.25
5,0.00,0.95,0.09,46.29
5,0.07,0.95,0.10,49.36
5,-0.00,1.00,0.10,49.36
5,-0.06,1.06,0.09,44.31
5,-0.06,1.06,0.07,44.97
5,-0.00,1.02,0.07,45.13
5,0.07,0.95,0.09,38.86
5,0.07,0.98,0.09,35.94
5,0.03,0.98,0.09,42.65
5,-0.06,1.06,0.09,42.65
5,-0.06,1.03,0.08,45.80
5,-0.03,1.03,0.09,42.00
5,0.05,0.96,0.09,42.00
5,0.04,0.96,0.09,48.34
5,0.04,0.96,0.08,49.95
5,-0.04,1.03,0.08,49.95
5,-0.05,1.05,0.09,56.04
5,-0.05,1.03,0.09,51.80
5,0.04,0.97,0.09,51.83
5,0.06,0.95,0.08,45.57
5,0.06,1.03,0.08,51.24
5,-0.02,1.03,0.08,51.37
5,-0.06,1.05,0.08,51.37
5,-0.12,0.99,0.08,46.41
5,0.01,0.99,0.09,36.41
5,0.06,0.95,0.09,36.41
5,-0.00,1.01,0.09,43.69
5,-0.00,1.01,0.07,47.11
5,-0.06,1.06,0.07,47.63
5,-0.01,1.01,0.09,47.63
5,-0.01,0.96,0.08,39.61
5,0.07,0.96,0.08,35.61
5,0.02,0.98,0.09,35.61
5,0.00,1.06,0.08,39.85
5,-0.06,1.06,0.08,37.39
5,-0.02,1.03,0.08,37.39
5,0.06,0.96,0.09,43.51
5,0.06,0.96,0.09,45.55
5,0.05,0.97,0.09,45.55
5,-0.05,1.04,0.09,41.58
5,-0.05,1.04,0.08,56.32
5,-0.05,1.04,0.08,56.24
5,0.05,0.98,0.08,57.03
5,0.05,0.95,0.10,42.48
6,-0.06,1.05,0.09,37.32
6,-0.06,1.01,0.07,44.07
6,-0.00,1.01,0.07,43.47
6,0.06,0.96,0.08,43.47
6,0.08,0.98,0.08,40.02
6,0.01,0.98,0.07,45.40
6,-0.06,1.05,0.07,45.40
6,-0.03,1.03,0.09,44.82
6,-0.03,1.03,0.09,46.47
6,0.06,0.96,0.09,46.47
6,0.03,0.96,0.10,43.81
6,0.03,0.97,0.09,42.64
6,-0.05,1.03,0.09,42.58
6,-0.05,1.03,0.08,40.23
6,-0.05,0.97,0.08,42.60
6,0.04,0.97,0.08,41.92
6,0.06,0.96,0.09,41.92
6,0.03,1.02,0.09,45.85
6,-0.04,1.02,0.08,47.20
6,-0.05,1.05,0.08,47.20
6,0.02,0.98,0.08,46.93
6,0.02,0.96,0.09,46.16
6,0.06,0.96,0.09,46.65
6,-0.01,1.00,0.08,45.87
6,-0.01,1.05,0.08,41.21
6,-0.06,1.05,0.08,45.74
6,0.01,1.00,0.08,45.74
6,0.00,0.96,0.09,38.79
6,0.07,0.96,0.09,35.17
6,0.02,1.00,0.09,35.17
6,-0.06,1.05,0.08,50.36
6,-0.06,1.05,0.08,42.47
6,-0.03,1.02,0.08,42.47
6,0.05,0.96,0.09,40.76
6,0.05,0.98,0.08,44.83
6,0.04,0.98,0.08,45.34
6,-0.04,1.04,0.08,47.69
6,-0.04,1.04,0.09,42.85
6,-0.04,1.04,0.08,45.18
6,0.04,0.96,0.08,45.18
6,0.05,0.95,0.10,40.41
6,0.05,0.95,0.08,42.93
6,-0.03,1.03,0.08,42.93
6,-0.04,1.04,0.08,43.25
6,-0.04,1.05,0.08,50.94
6,0.03,0.99,0.08,51.50
6,0.06,0.96,0.09,50.72
6,0.06,1.00,0.08,45.80
6,-0.02,1.00,0.08,42.61
6,-0.06,1.05,0.09,42.61
6,-0.00,1.00,0.09,43.68
6,-0.00,1.00,0.09,40.11
6,0.07,0.95,0.09,40.11
6,0.01,0.99,0.09,49.05
6,0.01,0.99,0.09,47.26
6,-0.05,1.04,0.09,47.04
6,-0.02,1.02,0.07,39.20
6,-0.02,1.02,0.08,41.22
6,0.06,0.95,0.08,47.82
6,0.03,0.97,0.08,47.82
6,0.03,1.04,0.07,38.01
6,-0.05,1.04,0.08,39.21
6,-0.03,1.04,0.08,39.21
6,-0.02,0.97,0.08,46.92
6,0.04,0.97,0.08,42.69
6,0.05,0.96,0.08,42.69
6,-0.04,1.02,0.10,47.12
6,-0.04,1.04,0.09,46.66
6,-0.05,1.04,0.09,46.28
6,0.03,0.99,0.09,48.63
6,0.03,0.95,0.09,42.82
6,0.05,0.95,0.09,43.22
6,-0.01,1.00,0.09,43.22
6,-0.05,1.04,0.08,37.67
6,-0.05,1.04,0.08,39.68
6,0.00,1.00,0.08,39.68
6,0.06,0.95,0.08,41.34
6,0.06,0.95,0.09,45.28
6,0.01,0.98,0.09,45.35
6,-0.05,1.05,0.09,48.48
6,-0.05,1.03,0.09,42.71
6,-0.02,1.03,0.09,40.70
6,0.05,0.96,0.09,40.70
6,0.03,0.97,0.10,42.46
6,0.03,0.97,0.09,41.65
6,-0.05,1.04,0.09,41.65
6,-0.04,1.04,0.09,43.88
6,-0.04,1.04,0.08,43.08
6,0.05,0.98,0.08,43.08
6,0.04,0.96,0.09,47.78
6,0.04,0.96,0.09,42.35
6,-0.03,1.02,0.09,42.98
6,-0.05,1.04,0.08,44.54
6,-0.05,0.98,0.08,41.24
6,0.02,0.98,0.08,43.06
6,0.06,0.95,0.08,43.06
6,0.05,1.00,0.09,41.99
6,-0.01,1.00,0.08,45.18
6,-0.06,1.05,0.08,45.18
6,0.01,1.01,0.08,41.10
6,0.01,1.01,0.10,45.12
6,0.06,0.95,0.10,45.28
6,0.02,0.99,0.09,44.50
6,0.02,1.04,0.08,44.83
6,-0.06,1.04,0.08,43.48
6,-0.02,1.02,0.09,43.48
6,-0.01,0.96,0.09,43.36
6,0.05,0.96,0.09,42.89
6,0.04,0.98,0.09,42.89
6,-0.05,1.03,0.08,47.22
6,-0.05,1.03,0.09,41.24
6,-0.02,1.03,0.09,41.24
6,0.04,0.97,0.08,37.83
6,0.04,0.96,0.09,50.16
6,0.04,0.96,0.09,50.81
6,-0.04,1.02,0.09,43.76
6,-0.04,1.04,0.09,43.98
6,-0.05,1.04,0.08,50.85
6,0.02,0.98,0.08,50.85
6,0.05,0.95,0.09,45.43
6,0.05,0.95,0.09,48.59
6,-0.01,1.01,0.09,48.59
6,-0.06,1.04,0.08,43.66
6,-0.06,1.00,0.09,40.84
6,0.01,1.00,0.09,41.17
6,0.05,0.96,0.09,49.00
6,0.05,0.99,0.09,49.29
6,0.01,0.99,0.09,49.26
6,-0.06,1.04,0.08,49.26
6,-0.07,1.01,0.08,38.63
6,-0.01,1.01,0.09,49.20
6,0.06,0.96,0.09,49.20
6,0.02,0.98,0.08,42.64
6,0.02,0.98,0.09,33.98
6,-0.05,1.03,0.09,33.75
6,-0.03,1.03,0.08,47.07
6,-0.03,1.03,0.08,55.84
6,0.05,0.97,0.08,43.12
6,0.05,0.96,0.08,43.12
6,0.05,1.02,0.08,49.94
6,-0.03,1.02,0.08,44.17
6,-0.04,1.04,0.08,44.17
6,-0.03,0.99,0.08,57.38
6,0.03,0.99,0.09,51.46
6,0.05,0.96,0.09,51.46
6,-0.01,1.01,0.09,44.05
6,-0.01,1.05,0.08,39.76
6,-0.05,1.05,0.08,39.64
6,0.01,1.00,0.09,44.34
6,0.01,0.96,0.09,45.88
6,0.05,0.96,0.09,50.35
6,0.02,0.99,0.09,50.35
6,0.01,1.04,0.08,48.42
6,-0.05,1.04,0.08,42.23
6,-0.01,1.01,0.08,42.23
6,0.05,0.96,0.09,54.25
6,0.05,0.96,0.08,46.70
6,0.03,0.97,0.08,46.80
6,-0.05,1.04,0.08,49.15
6,-0.05,1.03,0.08,40.86
6,-0.03,1.03,0.08,48.78
6,0.04,0.97,0.09,48.78
6,0.04,0.98,0.09,48.86
6,0.04,0.98,0.09,48.09
6,-0.03,1.02,0.09,48.09
6,-0.05,1.03,0.09,44.76
6,-0.05,1.03,0.09,37.48
6,0.02,0.99,0.09,37.48
6,0.06,0.96,0.09,46.14
6,0.06,0.95,0.09,48.79
6,-0.02,1.02,0.09,48.55
6,-0.05,1.05,0.08,53.25
6,-0.05,1.00,0.09,49.74
6,0.01,1.00,0.09,44.29
6,0.05,0.96,0.10,44.29
6,0.00,0.99,0.09,51.81
6,0.00,0.99,0.09,37.89
6,-0.06,1.04,0.09,37.89
6,-0.02,1.02,0.08,42.11
6,-0.02,1.03,0.09,43.05
6,0.05,0.97,0.09,43.35
6,0.02,0.98,0.09,41.79
6,0.02,1.03,0.09,45.93
6,-0.05,1.03,0.09,45.47
6,-0.03,1.03,0.09,45.47
6,-0.02,0.97,0.08,45.27
6,0.04,0.97,0.09,42.00
6,0.04,0.97,0.09,42.00
6,-0.03,1.02,0.09,39.53
6,-0.03,1.02,0.08,46.74
6,-0.04,1.05,0.08,46.80
6,0.03,0.99,0.08,42.88
6,0.03,0.96,0.09,45.23
6,0.04,0.96,0.09,45.19
6,-0.02,1.01,0.08,45.19
6,-0.02,1.04,0.08,46.72
6,-0.05,1.04,0.09,45.88
6,0.01,1.01,0.09,45.88
6,0.06,0.95,0.09,45.24
6,0.06,0.95,0.09,39.56
6,-0.01,0.99,0.09,39.56
6,-0.05,1.05,0.08,46.29
6,-0.05,1.01,0.08,53.73
6,-0.01,1.01,0.08,53.42
6,0.05,0.97,0.09,41.67
6,0.05,0.98,0.08,43.56
6,0.03,0.98,0.08,47.91
6,-0.04,1.04,0.09,47.91
6,-0.03,1.02,0.08,43.36
6,-0.03,1.02,0.09,47.50
6,0.03,0.96,0.09,47.50
6,0.03,0.97,0.10,45.94
6,0.03,0.97,0.08,38.74
6,-0.03,1.03,0.08,39.00
6,-0.04,1.04,0.08,46.83
6,-0.04,1.05,0.09,48.60
6,0.02,0.99,0.09,48.35
6,0.05,0.96,0.09,48.35
6,0.05,1.01,0.08,40.62
6,-0.01,1.01,0.08,46.32
6,-0.04,1.04,0.08,46.32
6,0.00,0.99,0.08,43.50
6,0.00,0.99,0.08,40.12
6,0.05,0.96,0.08,40.12
6,-0.00,0.99,0.08,49.43
6,-0.00,0.98,0.09,45.72
6,-0.05,1.04,0.09,45.61
6,-0.00,1.01,0.08,47.96
6,-0.00,0.97,0.09,49.11
6,0.05,0.97,0.09,43.79
6,0.01,0.98,0.09,43.79
6,0.01,1.04,0.08,46.43
6,-0.05,1.04,0.09,44.18
7,0.04,0.96,0.08,45.43
7,0.04,0.96,0.08,47.55
7,-0.02,1.01,0.08,47.55
7,-0.05,1.04,0.09,45.38
7,-0.05,1.04,0.07,49.55
7,0.01,1.00,0.07,49.86
7,0.05,0.96,0.09,42.03
7,0.05,0.99,0.08,50.42
7,-0.00,0.99,0.08,44.09
7,-0.05,1.04,0.08,44.09
7,-0.00,1.01,0.09,38.46
7,-0.00,1.01,0.08,54.76
7,0.04,0.96,0.08,54.76
7,0.02,0.98,0.08,44.94
7,0.02,0.98,0.08,44.00
7,-0.04,1.03,0.08,44.00
7,-0.03,1.02,0.08,38.41
7,-0.03,1.04,0.10,42.36
7,0.04,0.98,0.10,42.91
7,0.03,0.97,0.09,51.53
7,0.03,1.02,0.08,48.44
7,-0.03,1.02,0.08,44.08
7,-0.04,1.03,0.08,44.08
7,-0.03,0.98,0.09,46.08
7,0.03,0.98,0.10,49.70
7,0.04,0.96,0.10,49.70
7,-0.02,1.01,0.08,49.29
7,-0.02,1.05,0.08,49.43
7,-0.05,1.05,0.08,49.37
7,0.02,1.00,0.08,47.02
7,0.02,0.97,0.09,44.84
7,0.05,0.97,0.09,49.01
7,0.00,1.00,0.08,49.01
7,0.01,1.04,0.08,47.05
7,-0.05,1.04,0.09,46.94
7,0.00,1.01,0.09,46.94
7,0.05,0.97,0.08,45.32
7,0.05,0.97,0.09,44.18
7,0.02,0.99,0.09,44.57
7,-0.04,1.03,0.08,43.79
7,-0.04,1.02,0.08,47.48
7,-0.02,1.02,0.08,52.42
7,0.04,0.97,0.09,52.42
7,0.04,0.98,0.09,43.77
7,0.03,0.98,0.09,42.60
7,-0.04,1.02,0.09,42.60
7,-0.04,1.02,0.09,44.98
7,-0.04,1.02,0.08,45.79
7,0.03,0.99,0.08,45.79
7,0.04,0.97,0.09,47.15
7,0.04,0.95,0.09,49.16
7,-0.02,1.01,0.09,49.03
7,-0.04,1.04,0.08,44.33
7,-0.04,0.99,0.08,42.48
7,0.01,0.99,0.08,49.04
7,0.05,0.97,0.09,49.04
7,0.06,1.00,0.09,47.99
7,-0.00,1.00,0.09,47.41
7,-0.05,1.04,0.09,47.41
7,0.00,1.01,0.08,43.12
7,0.00,1.01,0.09,45.96
7,0.05,0.96,0.09,45.65
7,0.02,0.99,0.08,56.61
7,0.02,0.98,0.07,44.22
7,-0.04,1.04,0.07,47.89
7,-0.01,1.02,0.09,47.89
7,-0.01,0.97,0.09,46.37
7,0.04,0.97,0.08,42.22
7,0.03,0.98,0.08,42.22
7,-0.04,1.02,0.08,42.37
7,-0.04,1.02,0.08,42.34
7,-0.04,1.03,0.08,42.34
7,0.03,0.98,0.08,48.26
7,0.03,0.97,0.09,51.45
7,0.04,0.97,0.09,51.16
7,-0.02,1.01,0.08,49.60
7,-0.02,1.04,0.09,55.03
7,-0.04,1.04,0.09,36.35
7,0.01,1.00,0.09,36.35
7,0.04,0.96,0.09,47.01
7,0.04,0.96,0.08,45.07
7,-0.00,1.00,0.08,45.07
7,-0.04,1.03,0.08,44.18
7,-0.04,1.01,0.08,41.49
7,-0.00,1.01,0.08,41.91
7,0.04,0.96,0.08,44.26
7,0.04,0.99,0.09,49.31
7,0.01,0.99,0.09,42.26
7,-0.04,1.03,0.07,42.26
7,-0.02,1.02,0.09,48.78
7,-0.02,1.02,0.07,47.38
7,0.05,0.97,0.07,47.38
7,0.04,0.97,0.09,44.96
7,0.04,0.97,0.08,48.48
7,-0.04,1.02,0.08,48.48
7,-0.03,1.03,0.08,44.64
7,-0.03,1.05,0.09,40.61
7,0.03,0.99,0.09,43.39
7,0.05,0.97,0.09,43.39
7,0.05,1.02,0.09,44.46
7,-0.02,1.02,0.07,44.31
7,-0.04,1.04,0.07,44.31
7,-0.05,0.99,0.08,49.82
7,0.01,0.99,0.09,43.02
7,0.04,0.96,0.09,43.02
7,-0.01,0.99,0.09,47.03
7,-0.01,0.97,0.08,45.00
7,-0.04,1.03,0.08,44.91
7,-0.00,1.01,0.08,41.78
7,-0.00,0.96,0.09,43.62
7,0.04,0.96,0.09,44.66
7,0.02,0.99,0.08,44.66
7,0.02,1.03,0.08,46.31
7,-0.04,1.03,0.08,53.84
7,-0.02,1.02,0.08,53.84
7,0.04,0.96,0.09,44.77
7,0.04,0.96,0.10,41.69
7,0.03,0.97,0.10,42.18
7,-0.03,1.03,0.09,46.88
7,-0.03,1.03,0.09,48.49
7,-0.03,1.03,0.09,51.06
7,0.03,0.98,0.08,51.06
7,0.03,0.96,0.08,44.63
7,0.04,0.96,0.09,41.20
7,-0.02,1.01,0.09,41.20
7,-0.04,1.03,0.08,45.77
7,-0.04,1.03,0.07,41.85
7,0.02,0.99,0.07,41.85
7,0.04,0.96,0.09,42.85
7,0.04,0.99,0.08,47.45
7,-0.01,0.99,0.08,47.27
7,-0.05,1.03,0.09,50.40
7,-0.05,1.01,0.08,52.05
7,0.00,1.01,0.08,47.88
7,0.05,0.96,0.08,47.88
7,0.02,1.00,0.09,40.85
7,0.02,1.00,0.07,42.07
7,-0.05,1.03,0.07,42.07
7,-0.02,1.02,0.08,42.48
7,-0.02,1.02,0.10,42.90
7,0.04,0.97,0.10,42.23
7,0.03,0.98,0.09,44.58
7,0.03,0.96,0.07,47.84
7,-0.04,1.02,0.07,46.03
7,-0.02,1.02,0.08,46.03
7,-0.03,0.99,0.08,43.50
7,0.03,0.99,0.10,50.51
7,0.04,0.97,0.10,50.51
7,-0.01,1.02,0.09,44.45
7,-0.01,1.02,0.09,45.67
7,-0.05,1.04,0.09,45.67
7,0.02,1.00,0.08,38.93
7,0.02,0.97,0.09,44.70
7,0.04,0.97,0.09,45.28
7,0.00,1.00,0.08,44.49
7,0.00,1.03,0.08,41.21
7,-0.04,1.03,0.08,44.39
7,0.00,1.01,0.08,44.39
7,0.05,0.96,0.09,41.98
7,0.05,0.96,0.09,45.52
7,0.01,0.99,0.09,45.52
7,-0.04,1.04,0.08,45.96
7,-0.04,1.02,0.08,49.91
7,-0.01,1.02,0.08,49.44
7,0.04,0.97,0.08,51.79
7,0.04,0.99,0.09,41.37
7,0.03,0.99,0.09,45.42
7,-0.04,1.02,0.08,45.42
7,-0.02,1.03,0.09,45.91
7,-0.02,1.03,0.08,43.32
7,0.03,0.98,0.08,43.32
7,0.04,0.97,0.08,53.60
7,0.04,0.97,0.09,43.21
7,-0.03,1.01,0.09,43.21
7,-0.05,1.03,0.08,43.52
7,-0.05,1.06,0.08,46.13
7,0.02,1.00,0.08,38.41
7,0.05,0.97,0.08,38.41
7,0.05,1.00,0.09,40.01
7,-0.00,1.00,0.08,44.05
7,-0.04,1.03,0.08,44.05
7,-0.06,1.01,0.09,49.33
7,0.00,1.01,0.09,42.62
7,0.04,0.97,0.09,42.62
7,0.01,1.00,0.09,39.57
7,0.01,1.03,0.07,44.77
7,-0.03,1.03,0.07,45.30
7,-0.02,1.01,0.09,47.65
7,-0.02,0.97,0.08,51.84
7,0.04,0.97,0.08,46.84
7,0.02,0.98,0.08,46.84
7,0.02,1.02,0.09,48.82
7,-0.04,1.02,0.08,43.18
7,-0.02,1.03,0.08,43.18
7,0.03,0.98,0.09,49.13
7,0.03,0.98,0.09,37.37
7,0.04,0.98,0.09,36.87
7,-0.02,1.01,0.08,43.92
7,-0.02,1.02,0.08,42.16
7,-0.04,1.02,0.08,43.34
7,0.02,1.00,0.09,43.34
7,0.02,0.97,0.08,41.55
7,0.04,0.97,0.08,39.58
7,-0.01,1.00,0.08,39.58
7,-0.03,1.03,0.09,41.72
7,-0.03,1.03,0.09,44.62
7,0.00,1.00,0.09,44.62
7,0.04,0.97,0.08,45.47
7,0.04,0.94,0.09,42.94
7,0.01,1.00,0.09,42.70
7,-0.03,1.03,0.09,45.05
7,-0.03,1.01,0.09,42.99
7,-0.00,1.01,0.09,44.82
7,0.04,0.97,0.08,44.82
7,0.01,0.97,0.08,48.75
7,0.01,0.97,0.08,41.52
7,-0.02,1.02,0.08,41.52
7,-0.02,1.02,0.08,42.18
7,-0.02,1.04,0.08,49.65
7,0.03,0.98,0.08,49.94
7,0.03,0.97,0.09,48.38
7,0.03,1.01,0.07,48.51
7,-0.02,1.01,0.07,51.55
7,-0.03,1.04,0.09,51.55
7,-0.04,1.00,0.08,48.86
7,0.02,1.00,0.09,41.46
7,0.04,0.97,0.09,41.46
7,-0.01,1.00,0.09,49.60
7,-0.01,1.00,0.09,45.57
7,-0.04,1.04,0.09,45.57
7,0.01,1.01,0.08,43.15
7,0.01,1.04,0.08,39.07
7,0.04,0.97,0.08,38.65
8,-0.03,1.02,0.08,44.35
8,-0.02,1.02,0.08,44.01
8,0.03,0.98,0.08,44.80
8,0.03,0.97,0.09,42.97
8,0.03,0.97,0.09,46.03
8,-0.02,1.02,0.08,46.03
8,-0.02,1.03,0.08,45.50
8,-0.02,1.03,0.09,41.71
8,0.02,0.99,0.09,41.71
8,0.03,0.97,0.09,47.27
8,0.03,0.97,0.09,38.98
8,-0.01,1.00,0.09,38.38
8,-0.04,1.03,0.08,44.64
8,-0.04,1.01,0.08,41.82
8,0.01,1.01,0.08,49.04
8,0.04,0.97,0.09,49.04
8,0.00,0.99,0.08,46.74
8,0.00,0.99,0.08,43.78
8,-0.03,1.03,0.08,43.78
8,-0.01,1.01,0.08,42.63
8,-0.01,1.01,0.08,43.16
8,0.03,0.98,0.08,43.16
8,0.01,0.98,0.08,45.13
8,0.01,0.96,0.09,42.79
8,-0.03,1.03,0.09,42.59
8,-0.02,1.02,0.08,43.38
8,-0.02,0.98,0.09,45.23
8,0.03,0.98,0.09,39.92
8,0.03,0.97,0.08,39.92
8,0.04,1.02,0.08,39.70
8,-0.02,1.02,0.09,38.84
8,-0.04,1.02,0.09,38.84
8,0.02,0.99,0.08,41.55
8,0.02,0.98,0.09,47.99
8,0.04,0.98,0.09,48.11
8,-0.01,1.01,0.08,49.68
8,-0.01,1.04,0.08,41.62
8,-0.05,1.04,0.08,42.81
8,0.01,1.00,0.09,42.81
8,0.04,0.97,0.08,46.93
8,0.04,0.97,0.08,46.03
8,0.01,1.00,0.08,46.03
8,-0.04,1.03,0.09,43.97
8,-0.04,1.03,0.09,45.95
8,-0.01,1.01,0.09,45.95
8,0.04,0.98,0.08,44.47
8,0.04,0.99,0.08,49.05
8,0.02,0.99,0.08,41.19
8,-0.04,1.03,0.08,41.19
8,-0.04,1.02,0.09,47.34
8,-0.02,1.02,0.08,38.71
8,0.04,0.98,0.08,38.71
8,0.03,0.98,0.08,42.83
8,0.03,0.98,0.09,43.83
8,-0.02,1.01,0.09,43.83
8,-0.03,1.03,0.08,40.99
8,-0.03,1.06,0.07,41.29
8,0.03,1.00,0.07,40.98
8,0.04,0.97,0.08,43.33
8,0.04,1.00,0.08,43.20
8,-0.01,1.00,0.08,46.74
8,-0.03,1.03,0.08,46.74
8,-0.06,1.00,0.09,48.36
8,0.01,1.00,0.08,40.94
8,0.03,0.97,0.08,40.94
8,-0.01,1.00,0.08,41.15
8,-0.01,1.00,0.09,49.16
8,-0.03,1.03,0.09,49.05
8,-0.01,1.01,0.08,43.56
8,-0.01,1.04,0.08,38.43
8,0.04,0.98,0.08,46.92
8,0.01,0.98,0.09,46.92
8,0.01,1.02,0.08,45.69
8,-0.03,1.02,0.08,40.93
8,-0.02,1.02,0.08,40.93
8,0.03,0.98,0.09,49.43
8,0.03,0.98,0.09,46.78
8,0.03,0.98,0.09,46.78
8,-0.03,1.01,0.08,43.53
8,-0.03,1.04,0.08,39.33
8,-0.02,1.04,0.08,39.62
8,0.02,0.99,0.09,39.62
8,0.02,0.98,0.09,48.09
8,0.04,0.98,0.09,41.61
8,-0.01,1.00,0.09,41.61
8,-0.05,1.03,0.07,44.01
8,-0.05,1.03,0.09,43.83
8,0.00,1.00,0.09,43.83
8,0.03,0.97,0.10,39.81
8,0.03,1.00,0.08,41.99
8,0.00,1.00,0.08,41.59
8,-0.03,1.03,0.09,43.15
8,-0.03,1.00,0.08,41.14
8,-0.00,1.00,0.08,45.13
8,0.04,0.97,0.09,45.13
8,0.01,1.00,0.08,45.78
8,0.01,1.00,0.09,41.11
8,-0.03,1.02,0.09,41.11
8,-0.02,1.01,0.08,46.96
8,-0.02,1.01,0.08,47.33
8,0.03,0.98,0.08,47.33
8,0.03,0.98,0.10,46.71
8,0.03,0.95,0.09,47.07
8,-0.02,1.01,0.09,46.77
8,-0.02,1.02,0.08,46.77
8,-0.02,0.99,0.09,36.52
8,0.02,0.99,0.08,44.27
8,0.03,0.97,0.08,44.27
8,0.05,1.01,0.08,41.74
8,-0.01,1.01,0.08,40.21
8,-0.04,1.03,0.08,40.21
8,0.01,1.01,0.09,48.77
8,0.01,1.03,0.08,48.94
8,0.04,0.97,0.08,48.73
8,0.00,1.00,0.08,41.68
8,0.00,1.02,0.09,42.90
8,-0.04,1.02,0.09,44.25
8,0.00,1.02,0.09,44.25
8,0.03,0.97,0.09,39.90
8,0.03,0.97,0.09,40.47
8,0.01,0.98,0.09,40.47
8,-0.03,1.02,0.08,45.06
8,-0.03,1.02,0.09,48.01
8,-0.01,1.02,0.09,48.24
8,0.03,0.98,0.09,47.46
8,0.03,0.98,0.10,45.36
8,0.03,0.98,0.10,40.95
8,-0.03,1.02,0.09,40.95
8,-0.03,1.02,0.09,47.99
8,-0.03,1.02,0.09,40.02
8,0.02,0.99,0.09,40.02
8,0.03,0.98,0.08,45.18
8,0.03,0.98,0.09,46.49
8,-0.01,1.01,0.09,46.49
8,-0.03,1.03,0.08,41.04
8,-0.03,1.06,0.08,43.31
8,0.01,1.00,0.08,43.44
8,0.04,0.97,0.09,38.74
8,0.04,1.00,0.09,44.16
8,-0.00,1.00,0.09,37.68
8,-0.03,1.02,0.08,37.68
8,-0.00,1.02,0.07,40.21
8,-0.00,1.02,0.10,41.11
8,0.04,0.97,0.10,41.11
8,0.02,0.99,0.09,36.57
8,0.02,0.95,0.09,41.02
8,-0.03,1.01,0.09,41.30
8,-0.01,1.03,0.09,47.56
8,-0.01,0.98,0.08,43.53
8,0.03,0.98,0.08,50.61
8,0.02,0.99,0.09,50.61
8,0.04,1.02,0.08,38.91
8,-0.02,1.02,0.08,51.45
8,-0.03,1.02,0.08,51.45
8,0.02,0.99,0.09,43.14
8,0.02,0.99,0.09,47.00
8,0.04,0.97,0.09,47.00
8,-0.02,1.01,0.09,41.29
8,-0.02,1.03,0.08,43.94
8,-0.04,1.03,0.08,45.28
8,0.00,1.00,0.09,45.28
8,0.00,0.98,0.10,43.26
8,0.04,0.98,0.08,51.61
8,0.00,1.00,0.08,51.61
8,0.03,1.01,0.07,46.94
8,-0.03,1.01,0.09,45.84
8,-0.01,1.00,0.09,45.84
8,0.03,0.98,0.09,45.41
8,0.03,0.99,0.09,43.85
8,0.01,0.99,0.09,44.56
8,-0.03,1.02,0.08,44.56
8,-0.03,1.01,0.08,40.80
8,-0.02,1.01,0.08,44.84
8,0.03,0.99,0.08,44.84
8,0.03,0.98,0.09,43.21
8,0.03,0.98,0.08,41.38
8,-0.03,1.02,0.08,41.38
8,-0.03,1.02,0.08,43.65
8,-0.03,1.02,0.08,40.23
8,0.02,0.99,0.08,39.97
8,0.03,0.98,0.08,39.19
8,0.03,0.94,0.08,42.81
8,-0.01,1.01,0.08,46.92
8,-0.03,1.02,0.09,46.92
8,-0.03,0.99,0.08,44.92
8,0.00,0.99,0.09,45.26
8,0.04,0.98,0.09,45.26
8,0.00,1.00,0.09,40.98
8,0.00,1.00,0.08,47.64
8,-0.03,1.03,0.08,47.64
8,-0.01,1.00,0.08,47.92
8,-0.01,1.04,0.09,44.45
8,0.04,0.97,0.09,44.32
8,0.02,0.98,0.09,38.84
8,0.02,1.03,0.09,50.55
8,-0.04,1.03,0.09,45.04
8,-0.01,1.01,0.09,45.04
8,-0.03,0.98,0.08,49.01
8,0.03,0.98,0.09,49.43
8,0.02,0.99,0.09,49.43
8,-0.03,1.02,0.09,46.76
8,-0.03,1.02,0.09,43.76
8,-0.03,1.02,0.09,43.05
8,0.02,0.98,0.09,40.70
8,0.02,0.97,0.09,38.16
8,0.02,0.97,0.09,42.96
8,-0.01,1.00,0.08,42.96
8,-0.03,1.02,0.07,39.96
8,-0.03,1.02,0.08,49.16
8,0.00,1.00,0.08,49.16
8,0.03,0.97,0.08,43.89
8,0.03,0.97,0.09,37.68
8,-0.00,1.00,0.09,37.68
8,-0.03,1.02,0.09,44.16
8,-0.03,1.01,0.09,42.05
8,-0.00,1.01,0.09,50.73
8,0.03,0.98,0.08,50.73
8,0.03,0.99,0.09,44.72
8,0.01,0.99,0.09,43.48
8,-0.03,1.02,0.09,43.48
8,-0.01,1.01,0.09,42.31
8,-0.01,1.01,0.09,42.77
8,0.03,0.99,0.09,42.77
8,0.02,0.99,0.08,49.13
8,0.02,0.95,0.08,48.80
8,-0.02,1.01,0.08,48.66
8,-0.02,1.01,0.09,43.96
8,-0.02,0.99,0.08,42.97
8,0.02,0.99,0.08,43.36
8,0.02,0.98,0.09,43.36
8,0.05,1.00,0.09,48.60
8,-0.01,1.00,0.08,40.98
8,-0.03,1.03,0.08,40.98
9,0.03,0.97,0.09,42.95
9,0.01,1.00,0.09,42.95
9,-0.02,1.02,0.08,49.75
9,-0.02,1.02,0.08,48.19
9,-0.02,1.01,0.08,48.08
9,0.03,0.99,0.09,45.73
9,0.03,0.98,0.08,43.39
9,0.01,0.98,0.08,43.23
9,-0.02,1.02,0.09,43.23
9,-0.02,1.01,0.09,47.98
9,-0.02,1.01,0.08,48.01
9,0.03,0.98,0.08,48.01
9,0.02,0.98,0.09,45.36
9,0.02,0.98,0.08,41.86
9,-0.02,1.01,0.08,41.86
9,-0.02,1.02,0.08,45.42
9,-0.02,1.06,0.09,34.97
9,0.00,1.00,0.09,35.14
9,0.03,0.97,0.09,38.27
9,0.03,1.00,0.09,47.10
9,0.00,1.00,0.09,50.24
9,-0.04,1.02,0.08,50.24
9,-0.01,1.00,0.09,42.43
9,-0.01,1.00,0.09,46.42
9,0.04,0.98,0.09,46.42
9,0.01,0.99,0.09,43.46
9,0.01,0.99,0.08,47.81
9,-0.03,1.02,0.08,48.12
9,-0.01,1.01,0.09,43.42
9,-0.01,1.04,0.08,45.25
9,0.03,0.98,0.08,41.50
9,0.02,0.98,0.10,41.50
9,0.02,1.02,0.08,39.46
9,-0.02,1.02,0.09,42.92
9,-0.02,1.02,0.09,42.92
9,-0.04,0.98,0.09,50.88
9,0.03,0.98,0.09,45.16
9,0.02,0.98,0.09,45.16
9,-0.01,1.01,0.09,46.33
9,-0.01,1.02,0.08,41.70
9,-0.03,1.02,0.08,41.57
9,0.01,1.00,0.09,42.35
9,0.01,0.98,0.10,46.39
9,0.03,0.98,0.10,43.23
9,0.00,1.00,0.09,43.23
9,0.03,1.03,0.08,43.24
9,-0.04,1.03,0.08,47.25
9,0.01,1.00,0.08,47.25
9,0.04,0.98,0.09,45.70
9,0.04,0.99,0.09,48.50
9,0.00,0.99,0.09,48.60
9,-0.03,1.02,0.08,47.03
9,-0.03,1.01,0.09,46.70
9,0.00,1.01,0.09,44.63
9,0.02,0.99,0.09,44.63
9,0.01,0.99,0.10,43.44
9,0.01,0.99,0.08,40.63
9,-0.02,1.02,0.08,40.63
9,-0.02,1.02,0.09,41.52
9,-0.02,1.02,0.09,43.15
9,0.02,0.99,0.09,43.15
9,0.02,0.97,0.08,42.79
9,0.02,0.95,0.08,41.37
9,-0.01,1.01,0.08,41.10
9,-0.02,1.02,0.09,45.80
9,-0.02,1.00,0.08,44.79
9,0.01,1.00,0.09,41.45
9,0.03,0.98,0.09,41.45
9,0.06,1.00,0.09,39.60
9,-0.01,1.00,0.09,41.47
9,-0.03,1.02,0.09,41.47
9,-0.00,1.00,0.09,42.35
9,-0.00,1.05,0.09,39.71
9,0.03,0.99,0.09,39.30
9,0.00,1.00,0.09,44.00
9,0.00,1.02,0.08,41.55
9,-0.02,1.02,0.08,45.55
9,-0.01,1.01,0.08,45.55
9,-0.03,0.98,0.08,43.11
9,0.03,0.98,0.09,41.90
9,0.02,0.98,0.09,41.90
9,-0.02,1.01,0.09,40.17
9,-0.02,1.01,0.08,46.09
9,-0.02,1.01,0.08,46.08
9,0.02,0.98,0.08,43.73
9,0.02,0.99,0.09,46.51
9,0.02,0.99,0.09,38.92
9,-0.01,1.01,0.08,38.92
9,-0.01,1.02,0.09,41.64
9,-0.02,1.02,0.09,42.08
9,0.01,1.00,0.09,42.08
9,0.02,0.98,0.09,43.49
9,0.02,0.98,0.09,41.94
9,-0.01,1.00,0.09,41.94
9,-0.03,1.02,0.08,44.25
9,-0.03,1.01,0.08,44.62
9,-0.00,1.01,0.08,45.31
9,0.03,0.98,0.09,42.17
9,0.03,0.99,0.08,45.42
9,0.01,0.99,0.08,43.35
9,-0.03,1.02,0.09,43.35
9,-0.00,1.02,0.09,38.38
9,-0.00,1.02,0.09,46.25
9,0.03,0.98,0.09,46.25
9,0.01,0.99,0.08,47.52
9,0.01,0.99,0.09,46.09
9,-0.03,1.02,0.09,45.61
9,-0.02,1.02,0.08,46.39
9,-0.02,0.99,0.09,46.26
9,0.02,0.99,0.09,44.10
9,0.03,0.98,0.09,44.10
9,0.05,1.01,0.08,43.45
9,-0.02,1.01,0.09,45.35
9,-0.02,1.02,0.09,45.35
9,0.02,1.00,0.08,43.54
9,0.02,1.00,0.08,39.20
9,0.03,0.98,0.08,39.20
9,-0.01,1.00,0.10,48.24
9,-0.01,0.96,0.09,41.76
9,-0.03,1.03,0.09,41.74
9,-0.00,1.00,0.09,49.58
9,-0.00,0.98,0.09,42.10
9,0.03,0.98,0.09,44.53
9,0.00,1.00,0.08,44.53
9,0.05,1.02,0.08,43.31
9,-0.02,1.02,0.09,40.27
9,-0.01,1.02,0.09,40.27
9,0.03,0.98,0.08,46.41
9,0.03,0.98,0.08,46.71
9,0.01,0.98,0.08,46.46
9,-0.02,1.02,0.08,39.41
9,-0.02,1.01,0.09,39.08
9,-0.01,1.01,0.09,46.72
9,0.03,0.99,0.09,46.72
9,0.02,0.99,0.08,45.88
9,0.02,0.99,0.08,40.76
9,-0.01,1.01,0.08,40.76
9,-0.03,1.03,0.08,41.15
9,-0.03,1.03,0.09,43.16
9,0.01,1.00,0.09,43.72
9,0.02,0.98,0.08,50.77
9,0.02,0.94,0.08,44.94
9,-0.01,1.01,0.08,38.34
9,-0.03,1.02,0.08,38.34
9,-0.03,1.01,0.08,41.58
9,0.00,1.01,0.09,41.01
9,0.03,0.98,0.09,41.01
9,0.00,0.99,0.09,45.20
9,0.00,0.99,0.09,46.44
9,-0.03,1.02,0.09,46.44
9,-0.01,1.01,0.09,46.14
9,-0.01,1.04,0.08,45.24
9,0.03,0.98,0.08,45.13
9,0.02,0.98,0.09,42.00
9,0.02,1.02,0.07,41.89
9,-0.03,1.02,0.07,45.08
9,-0.01,1.01,0.09,45.08
9,-0.04,0.99,0.09,41.25
9,0.02,0.99,0.10,41.13
9,0.03,0.98,0.10,41.13
9,-0.02,1.02,0.09,44.10
9,-0.02,1.02,0.09,44.35
9,-0.03,1.02,0.09,44.47
9,0.02,1.00,0.09,44.47
9,0.02,0.98,0.09,43.10
9,0.02,0.98,0.09,49.19
9,-0.01,1.01,0.09,49.19
9,-0.02,1.01,0.08,46.92
9,-0.02,1.01,0.08,43.86
9,0.01,1.00,0.08,43.86
9,0.03,0.98,0.08,46.79
9,0.03,0.98,0.08,47.87
9,0.00,1.01,0.08,47.87
9,-0.03,1.02,0.07,43.67
9,-0.03,1.01,0.08,42.44
9,-0.01,1.01,0.08,42.61
9,0.03,0.99,0.09,48.88
9,0.03,0.99,0.09,44.99
9,0.02,0.99,0.09,44.55
9,-0.02,1.01,0.08,44.55
9,-0.01,1.01,0.08,43.32
9,-0.01,1.01,0.09,41.05
9,0.02,0.99,0.09,41.05
9,0.01,0.99,0.08,50.48
9,0.01,0.99,0.09,48.44
9,-0.01,1.01,0.09,48.32
9,-0.03,1.03,0.09,44.40
9,-0.03,1.00,0.08,38.01
9,0.01,1.00,0.08,40.60
9,0.04,0.98,0.09,40.60
9,0.05,1.00,0.08,42.77
9,-0.01,1.00,0.08,41.57
9,-0.02,1.02,0.08,41.57
9,0.01,1.01,0.09,40.48
9,0.01,1.01,0.09,39.72
9,0.03,0.98,0.09,39.72
9,0.00,1.00,0.09,39.59
9,0.00,0.95,0.09,46.54
9,-0.03,1.02,0.09,46.84
9,-0.01,1.01,0.08,46.84
9,-0.01,0.99,0.09,44.60
9,0.03,0.99,0.09,44.15
9,0.01,0.99,0.09,44.15
9,0.04,1.01,0.09,37.36
9,-0.02,1.01,0.08,41.75
9,-0.01,1.01,0.08,41.75
9,0.02,0.99,0.08,42.17
9,0.02,0.99,0.08,48.88
9,0.01,0.99,0.08,48.98
9,-0.01,1.01,0.09,45.07
9,-0.01,1.02,0.08,44.03
9,-0.02,1.02,0.08,52.39
9,0.02,0.99,0.09,52.39
9,0.03,0.98,0.08,46.38
9,0.03,0.98,0.07,40.22
9,-0.01,1.00,0.07,40.22
9,-0.03,1.02,0.09,45.28
9,-0.03,1.02,0.09,41.83
9,0.01,1.00,0.09,41.53
9,0.03,0.98,0.08,41.53
9,0.03,0.99,0.08,39.89
9,0.00,0.99,0.08,44.68
9,-0.02,1.01,0.09,44.68
9,-0.02,1.01,0.08,52.75
9,-0.00,1.01,0.10,43.48
9,0.03,0.97,0.10,43.48
9,0.01,0.99,0.08,43.01
9,0.01,0.99,0.08,43.74
9,-0.02,1.02,0.08,43.74
9,-0.02,1.02,0.09,42.09
9,-0.02,1.05,0.08,43.14
9,0.02,0.99,0.08,43.23
9,0.03,0.98,0.09,47.15
10,-0.02,1.02,0.09,39.81
