seconds, accX, accY, accZ, temp
1,-0.21,1.02,0.09,43.10
1,-0.11,0.89,0.09,48.55
1,0.07,1.16,0.03,48.55
1,0.08,1.01,0.07,42.82
1,0.14,1.01,0.10,46.30
1,-0.03,0.90,0.22,46.30
1,-0.20,1.04,0.16,43.92
1,-0.20,1.00,0.11,47.40
1,-0.17,0.88,0.11,47.13
1,0.03,1.12,0.04,43.99
1,0.03,1.07,0.06,43.36
1,0.17,1.07,0.06,46.30
1,0.01,0.90,0.18,46.30
1,0.06,1.03,0.21,45.27
1,-0.19,1.03,0.19,42.22
1,-0.20,0.91,0.13,42.22
1,-0.04,1.05,0.06,42.96
1,-0.04,1.05,0.04,46.14
1,0.16,1.11,0.04,45.98
1,0.05,0.93,0.15,43.63
1,0.05,0.92,0.23,43.09
1,-0.15,0.99,0.23,43.31
1,-0.21,0.96,0.13,43.31
1,-0.21,0.98,0.07,47.06
1,-0.06,0.98,0.09,43.01
1,0.13,1.15,0.03,43.01
1,0.09,0.96,0.11,44.33
1,0.09,0.96,0.24,45.23
1,-0.09,0.95,0.24,45.23
1,-0.21,1.00,0.14,42.83
1,-0.21,1.03,0.10,40.31
1,-0.10,0.90,0.10,40.23
1,0.08,1.17,0.03,44.93
1,0.08,1.00,0.09,47.21
1,0.14,1.00,0.10,39.63
1,-0.05,0.90,0.23,39.63
1,-0.03,1.03,0.15,43.28
1,-0.21,1.03,0.11,40.87
1,-0.16,0.89,0.11,40.87
1,0.03,1.14,0.04,44.32
1,0.03,1.18,0.06,43.79
1,0.16,1.05,0.06,43.56
1,0.01,0.91,0.20,42.78
1,0.01,1.03,0.19,42.89
1,-0.20,1.03,0.19,43.15
1,-0.19,0.90,0.13,43.15
1,-0.20,1.06,0.05,41.85
1,-0.01,1.06,0.04,47.01
1,0.16,1.10,0.04,47.01
1,0.05,0.91,0.16,45.13
1,0.05,0.91,0.23,46.07
1,-0.16,1.00,0.23,45.64
1,-0.22,0.94,0.14,44.08
1,-0.22,1.00,0.07,43.88
1,-0.06,1.00,0.07,40.26
1,0.14,1.14,0.03,40.26
1,0.14,0.95,0.12,46.08
1,0.10,0.95,0.11,42.52
1,-0.12,0.96,0.23,42.52
1,-0.21,0.99,0.14,42.77
1,-0.21,0.99,0.09,42.32
1,-0.09,0.92,0.09,42.32
1,0.08,1.16,0.03,44.26
1,0.08,1.18,0.09,46.61
1,0.13,0.99,0.09,46.48
1,-0.06,0.92,0.23,42.56
1,-0.06,1.04,0.15,43.54
1,-0.20,1.04,0.17,49.43
1,-0.14,0.88,0.11,49.43
1,-0.15,1.14,0.03,46.63
1,0.04,1.14,0.07,46.86
1,0.15,1.04,0.07,46.86
1,-0.00,0.91,0.20,45.59
1,-0.00,0.91,0.20,45.90
1,-0.19,1.04,0.20,46.08
1,-0.18,0.89,0.13,43.73
1,-0.18,1.09,0.05,47.58
1,-0.01,1.09,0.05,45.66
1,0.16,1.08,0.05,45.66
1,0.17,0.91,0.16,46.86
1,0.04,0.91,0.15,44.02
1,-0.18,1.01,0.21,44.02
1,-0.20,0.94,0.14,41.15
1,-0.20,0.88,0.07,44.11
1,-0.06,1.01,0.07,44.01
1,0.14,1.12,0.03,43.23
1,0.14,0.94,0.13,42.29
1,0.08,0.94,0.13,41.69
1,-0.12,0.97,0.23,41.69
1,-0.09,0.98,0.14,47.05
1,-0.21,0.98,0.15,40.09
1,-0.09,0.94,0.08,40.09
1,0.09,1.15,0.03,40.21
1,0.09,1.15,0.10,43.38
1,0.12,0.97,0.10,43.76
1,-0.08,0.93,0.24,43.76
1,-0.08,0.89,0.15,45.89
1,-0.21,1.02,0.15,44.48
1,-0.13,0.89,0.11,44.48
1,-0.13,1.16,0.03,41.88
1,0.05,1.16,0.01,40.30
1,0.15,1.03,0.07,40.30
1,-0.02,0.91,0.22,43.87
1,-0.02,0.91,0.17,43.98
1,-0.20,1.04,0.17,43.98
1,-0.18,0.89,0.12,48.64
1,-0.18,0.92,0.05,39.91
1,0.00,1.10,0.05,40.25
1,0.16,1.07,0.05,48.09
1,0.16,0.91,0.17,45.99
1,0.02,0.91,0.15,42.23
1,-0.18,1.02,0.21,42.23
1,-0.14,0.92,0.14,41.53
1,-0.20,0.92,0.06,39.82
1,-0.04,1.03,0.06,39.82
1,0.15,1.12,0.04,43.66
1,0.15,1.12,0.14,42.78
1,0.07,0.93,0.14,42.96
1,-0.13,0.97,0.23,42.17
1,-0.13,0.97,0.14,43.71
1,-0.22,0.97,0.14,44.74
1,-0.08,0.97,0.09,44.74
1,-0.08,1.15,0.04,48.96
1,0.11,1.15,0.05,39.94
1,0.10,0.97,0.11,39.94
1,-0.09,0.94,0.24,41.50
1,-0.09,0.94,0.14,43.70
1,-0.21,1.01,0.14,43.25
1,-0.12,0.91,0.10,47.95
1,-0.12,1.15,0.03,48.67
1,0.07,1.15,0.03,43.16
1,0.14,1.01,0.08,43.16
1,0.15,0.91,0.22,46.09
1,-0.03,0.91,0.22,39.60
1,-0.20,1.03,0.16,39.60
1,-0.17,0.89,0.12,39.98
1,-0.17,0.89,0.04,37.26
1,0.02,1.12,0.04,37.44
1,0.15,1.06,0.06,42.14
1,0.15,1.10,0.19,45.51
1,0.01,0.92,0.19,46.86
1,-0.18,1.02,0.21,46.86
1,-0.18,0.91,0.13,49.22
1,-0.19,0.91,0.18,44.38
1,-0.03,1.05,0.05,44.38
1,-0.04,1.10,0.04,42.79
1,0.15,1.10,0.15,46.74
1,0.05,0.93,0.15,46.74
1,-0.14,0.99,0.22,38.79
1,-0.14,0.95,0.13,43.23
1,-0.21,0.95,0.13,43.05
1,-0.07,0.98,0.08,47.75
1,-0.07,1.14,0.03,41.14
1,0.11,1.14,0.03,46.60
1,0.10,0.97,0.11,46.60
1,0.10,0.95,0.24,40.86
1,-0.09,0.95,0.14,45.39
1,-0.21,1.01,0.14,45.39
1,-0.10,0.92,0.09,41.75
1,-0.10,0.90,0.03,43.16
1,0.08,1.15,0.03,43.19
1,0.14,0.99,0.08,48.68
1,0.14,0.91,0.23,48.27
1,-0.03,0.91,0.23,42.42
1,-0.21,1.02,0.16,42.42
1,-0.22,0.89,0.11,40.32
1,-0.15,0.89,0.11,44.74
1,0.03,1.12,0.04,44.74
1,0.15,1.05,0.07,40.03
1,0.15,1.05,0.19,42.02
1,0.00,0.92,0.19,42.07
1,-0.20,1.03,0.20,42.85
1,-0.20,1.03,0.13,43.56
1,-0.19,0.90,0.13,47.42
1,-0.02,1.06,0.06,47.42
1,-0.04,1.09,0.05,41.82
1,0.15,1.09,0.02,41.45
1,0.05,0.93,0.15,41.45
1,-0.15,1.00,0.22,46.38
1,-0.15,1.00,0.13,44.75
1,-0.21,0.95,0.13,45.22
1,-0.06,0.99,0.07,45.22
1,-0.06,0.94,0.01,44.38
1,0.13,1.13,0.01,39.60
1,0.09,0.96,0.12,39.60
1,0.09,0.97,0.23,42.13
1,-0.10,0.97,0.20,41.99
1,-0.21,0.99,0.14,41.99
1,-0.10,0.93,0.10,44.87
1,-0.10,0.93,0.03,46.40
1,0.08,1.14,0.03,46.40
1,0.13,0.99,0.09,44.76
1,0.13,0.99,0.23,44.84
1,-0.05,0.93,0.23,44.86
1,-0.21,1.02,0.16,45.65
1,-0.21,0.90,0.11,43.11
1,-0.14,0.90,0.10,43.47
1,0.04,1.14,0.04,43.47
1,0.03,1.03,0.07,40.72
1,0.15,1.03,0.20,38.13
1,-0.00,0.91,0.20,38.13
1,-0.19,1.04,0.19,52.09
1,-0.19,1.03,0.12,46.60
1,-0.18,0.91,0.12,46.92
1,-0.01,1.08,0.05,45.36
1,-0.01,1.07,0.05,41.56
1,0.15,1.07,0.05,42.13
1,0.03,0.93,0.17,42.13
1,0.02,1.01,0.22,43.80
1,-0.17,1.01,0.19,40.18
1,-0.19,0.94,0.13,40.18
1,-0.06,1.02,0.06,45.23
1,-0.06,1.02,0.04,48.79
1,0.13,1.13,0.04,48.73
1,0.08,0.95,0.12,45.60
1,0.08,0.97,0.23,43.07
1,-0.12,0.97,0.23,41.30
1,-0.21,0.98,0.14,41.30
1,-0.22,0.95,0.09,39.65
1,-0.09,0.95,0.10,41.01
1,0.10,1.14,0.04,41.01
1,0.11,0.98,0.10,42.19
1,0.11,0.98,0.23,39.57
1,-0.06,0.93,0.23,39.31
1,-0.20,1.01,0.14,41.66
2,-0.17,0.90,0.11,40.99
2,-0.00,1.10,0.05,43.92
2,-0.00,1.12,0.06,45.02
2,0.16,1.06,0.06,45.04
2,0.02,0.92,0.18,41.12
2,0.02,1.01,0.20,45.11
2,-0.17,1.01,0.20,39.49
2,-0.20,0.92,0.12,39.49
2,-0.23,1.03,0.06,44.75
2,-0.04,1.03,0.04,45.94
2,0.14,1.11,0.04,45.94
2,0.06,0.94,0.14,41.39
2,0.06,0.94,0.22,38.66
2,-0.12,0.98,0.22,39.06
2,-0.21,0.98,0.14,42.20
2,-0.21,0.96,0.08,45.21
2,-0.07,0.96,0.08,45.55
2,0.10,1.14,0.03,45.55
2,0.10,0.98,0.10,43.27
2,0.10,0.98,0.11,40.83
2,-0.08,0.94,0.23,40.83
2,-0.22,1.01,0.14,45.64
2,-0.22,1.01,0.11,44.64
2,-0.12,0.92,0.11,44.64
2,0.06,1.14,0.04,44.71
2,0.06,1.13,0.08,47.78
2,0.13,1.01,0.08,42.93
2,-0.03,0.93,0.22,42.93
2,-0.03,1.02,0.17,44.42
2,-0.20,1.02,0.18,47.60
2,-0.15,0.90,0.11,47.60
2,-0.18,1.11,0.04,42.84
2,0.01,1.11,0.06,41.97
2,0.15,1.05,0.06,41.97
2,0.02,0.92,0.18,41.81
2,0.02,0.90,0.20,50.08
2,-0.18,1.02,0.20,50.29
2,-0.18,0.92,0.13,46.38
2,-0.18,1.06,0.05,50.85
2,-0.03,1.06,0.05,44.74
2,0.13,1.09,0.04,44.74
2,0.18,0.95,0.14,44.18
2,0.06,0.95,0.16,44.35
2,-0.14,0.98,0.22,44.35
2,-0.20,0.96,0.13,45.57
2,-0.20,0.99,0.08,43.32
2,-0.08,0.99,0.08,43.25
2,0.11,1.13,0.04,40.90
2,0.11,0.97,0.12,43.71
2,0.10,0.97,0.12,45.17
2,-0.09,0.96,0.23,45.17
2,-0.08,1.00,0.14,46.56
2,-0.20,1.00,0.16,46.12
2,-0.10,0.93,0.10,46.12
2,0.07,1.13,0.04,39.87
2,0.07,1.13,0.10,42.41
2,0.12,1.00,0.10,42.52
2,-0.04,0.92,0.22,51.14
2,-0.04,0.91,0.15,41.79
2,-0.20,1.03,0.15,41.01
2,-0.14,0.90,0.11,41.01
2,-0.14,1.12,0.04,41.40
2,0.02,1.12,0.01,42.20
2,0.14,1.04,0.07,42.20
2,0.01,0.92,0.19,42.44
2,0.01,0.92,0.19,44.43
2,-0.17,1.03,0.19,44.43
2,-0.17,0.91,0.12,44.37
2,-0.17,0.88,0.04,41.60
2,-0.02,1.07,0.04,41.48
2,0.14,1.09,0.05,39.91
2,0.14,0.94,0.17,39.44
2,0.05,0.94,0.15,41.25
2,-0.15,0.99,0.21,41.25
2,-0.13,0.95,0.12,42.43
2,-0.19,0.95,0.07,42.74
2,-0.06,1.00,0.07,42.74
2,0.12,1.12,0.04,41.36
2,0.12,1.09,0.13,46.33
2,0.08,0.96,0.13,46.72
2,-0.10,0.96,0.22,45.94
2,-0.10,0.99,0.14,44.07
2,-0.20,0.99,0.14,43.48
2,-0.11,0.94,0.09,43.48
2,-0.10,1.14,0.03,39.58
2,0.08,1.14,0.04,38.08
2,0.11,1.00,0.10,38.08
2,-0.05,0.93,0.23,37.32
2,-0.05,0.89,0.16,42.83
2,-0.20,1.02,0.16,42.57
2,-0.14,0.91,0.11,41.78
2,-0.14,1.12,0.04,40.77
2,0.03,1.12,0.04,40.76
2,0.14,1.03,0.07,40.76
2,0.13,0.92,0.20,43.54
2,0.01,0.92,0.24,41.44
2,-0.18,1.02,0.18,41.44
2,-0.17,0.91,0.13,41.65
2,-0.17,0.91,0.04,46.34
2,-0.01,1.08,0.04,46.85
2,0.14,1.06,0.07,47.63
2,0.14,1.12,0.16,46.82
2,0.04,0.93,0.16,46.22
2,-0.16,1.01,0.20,46.22
2,-0.16,0.94,0.12,43.94
2,-0.19,0.94,0.12,43.42
2,-0.05,1.02,0.05,43.42
2,0.12,1.11,0.04,42.57
2,0.12,1.11,0.13,43.83
2,0.07,0.96,0.13,43.83
2,-0.11,0.97,0.22,36.66
2,-0.11,0.98,0.13,41.53
2,-0.20,0.98,0.13,41.51
2,-0.09,0.95,0.09,35.24
2,-0.09,1.13,0.03,43.72
2,0.09,1.13,0.03,47.98
2,0.11,0.98,0.10,47.98
2,0.12,0.94,0.23,45.47
2,-0.07,0.94,0.14,41.21
2,-0.20,1.01,0.14,41.21
2,-0.12,0.92,0.10,43.10
2,-0.12,0.88,0.04,44.52
2,0.04,1.13,0.04,44.41
2,0.14,1.02,0.08,45.20
2,0.14,0.92,0.21,47.99
2,-0.03,0.92,0.21,42.57
2,-0.19,1.02,0.17,42.57
2,-0.23,0.91,0.11,42.91
2,-0.16,0.91,0.11,44.83
2,-0.00,1.09,0.04,44.83
2,0.14,1.05,0.07,47.79
2,0.14,1.05,0.18,46.09
2,0.02,0.93,0.18,45.78
2,-0.16,1.02,0.20,43.43
2,-0.16,1.06,0.13,37.02
2,-0.18,0.93,0.13,40.62
2,-0.05,1.04,0.06,40.62
2,-0.06,1.10,0.04,47.38
2,0.13,1.10,0.02,44.41
2,0.07,0.95,0.14,44.41
2,-0.12,0.98,0.21,44.36
2,-0.12,0.98,0.15,41.74
2,-0.20,0.96,0.15,42.22
2,-0.08,0.98,0.07,42.22
2,-0.08,0.94,0.04,40.40
2,0.10,1.13,0.04,46.04
2,0.11,0.99,0.11,46.04
2,0.11,0.95,0.22,50.20
2,-0.08,0.95,0.21,44.71
2,-0.20,1.00,0.15,44.71
2,-0.24,0.93,0.09,39.77
2,-0.11,0.93,0.04,41.71
2,0.05,1.13,0.04,41.71
2,0.12,1.01,0.08,40.38
2,0.12,1.05,0.21,37.64
2,-0.03,0.93,0.21,37.76
2,-0.19,1.02,0.17,40.90
2,-0.19,0.92,0.12,41.65
2,-0.15,0.92,0.12,43.75
2,0.01,1.10,0.05,43.75
2,0.01,1.05,0.07,45.48
2,0.13,1.05,0.17,45.88
2,0.02,0.92,0.17,45.88
2,-0.17,1.00,0.20,42.67
2,-0.17,1.04,0.12,44.04
2,-0.18,0.91,0.12,43.98
2,-0.03,1.05,0.06,43.98
2,-0.03,1.09,0.06,42.09
2,0.13,1.09,0.06,43.61
2,0.06,0.94,0.16,43.61
2,0.06,0.98,0.21,39.66
2,-0.13,0.98,0.20,43.85
2,-0.20,0.97,0.13,43.85
2,-0.08,0.99,0.07,43.86
2,-0.08,0.99,0.04,40.39
2,0.10,1.11,0.04,40.28
2,0.09,0.97,0.11,43.41
2,0.09,0.95,0.23,44.01
2,-0.09,0.95,0.23,45.91
2,-0.20,0.99,0.14,45.91
2,-0.23,0.93,0.09,40.56
2,-0.11,0.93,0.10,39.86
2,0.06,1.14,0.04,39.86
2,0.11,0.99,0.09,41.87
2,0.11,0.99,0.21,43.80
2,-0.04,0.93,0.21,43.80
2,-0.19,1.02,0.15,41.87
2,-0.19,1.04,0.10,39.96
2,-0.15,0.91,0.10,41.62
2,0.02,1.11,0.05,41.62
2,0.02,1.03,0.08,45.50
2,0.14,1.03,0.07,45.11
2,0.01,0.93,0.19,45.11
2,0.01,1.02,0.18,41.24
2,-0.18,1.02,0.12,44.28
2,-0.17,0.91,0.12,44.28
2,-0.03,1.07,0.06,42.01
2,-0.03,1.07,0.06,42.25
2,0.14,1.07,0.06,42.82
2,0.04,0.94,0.16,40.47
2,0.04,1.00,0.21,45.97
2,-0.15,1.00,0.21,47.48
2,-0.19,0.94,0.13,47.48
2,-0.25,1.01,0.07,42.93
2,-0.06,1.01,0.11,41.05
2,0.11,1.11,0.05,41.05
2,0.08,0.96,0.13,42.78
2,0.08,0.96,0.22,45.24
2,-0.09,0.96,0.22,44.87
2,-0.20,0.99,0.13,38.60
2,-0.20,0.95,0.09,40.07
2,-0.10,0.95,0.09,41.99
2,0.08,1.12,0.04,41.99
2,0.11,0.99,0.10,47.54
2,0.11,0.99,0.08,50.22
2,-0.04,0.94,0.21,50.22
2,-0.19,1.01,0.15,40.68
2,-0.19,1.01,0.11,46.58
2,-0.14,0.91,0.11,46.39
2,0.03,1.12,0.04,44.82
2,0.03,1.09,0.08,43.40
2,0.13,1.02,0.08,42.65
2,-0.01,0.93,0.20,42.65
2,-0.01,1.03,0.19,40.65
2,-0.19,1.03,0.24,43.90
2,-0.18,0.91,0.11,43.90
2,-0.02,1.08,0.05,37.81
2,-0.02,1.08,0.07,46.31
2,0.13,1.06,0.07,46.31
2,0.02,0.94,0.17,44.47
2,0.02,0.88,0.21,42.10
2,-0.15,1.00,0.21,41.77
2,-0.18,0.94,0.12,45.68
3,-0.09,0.97,0.08,42.49
3,0.08,1.12,0.04,48.76
3,0.08,1.11,0.10,46.05
3,0.11,0.99,0.10,44.33
3,-0.07,0.94,0.23,44.33
3,-0.07,1.00,0.14,41.77
3,-0.20,1.00,0.16,40.93
3,-0.12,0.93,0.10,40.93
3,0.04,1.12,0.04,44.93
3,0.04,1.12,0.09,40.71
3,0.12,1.01,0.09,40.71
3,-0.03,0.93,0.20,47.45
3,-0.03,0.89,0.17,43.32
3,-0.18,1.02,0.17,43.05
3,-0.16,0.92,0.12,45.40
3,-0.16,1.08,0.04,40.02
3,-0.01,1.08,0.00,44.04
3,0.13,1.05,0.07,44.04
3,0.15,0.94,0.17,42.09
3,0.03,0.94,0.19,42.38
3,-0.16,1.01,0.19,42.38
3,-0.19,0.93,0.13,40.79
3,-0.19,0.91,0.06,38.38
3,-0.05,1.04,0.06,38.37
3,0.12,1.09,0.06,43.85
3,0.12,0.95,0.15,42.33
3,0.06,0.95,0.15,43.03
3,-0.12,0.98,0.21,43.03
3,-0.06,0.97,0.13,42.30
3,-0.19,0.97,0.15,40.48
3,-0.08,0.99,0.09,40.48
3,0.09,1.12,0.05,40.08
3,0.09,1.12,0.12,48.51
3,0.10,0.97,0.12,48.75
3,-0.07,0.95,0.22,45.62
3,-0.07,1.00,0.15,44.90
3,-0.20,1.00,0.15,43.99
3,-0.11,0.94,0.09,43.99
3,-0.07,1.12,0.03,44.52
3,0.05,1.12,0.02,44.72
3,0.12,1.01,0.09,44.72
3,-0.03,0.94,0.22,45.23
3,-0.03,0.94,0.17,40.32
3,-0.19,1.01,0.17,39.92
3,-0.15,0.92,0.11,43.05
3,-0.15,0.91,0.04,44.45
3,0.01,1.10,0.04,42.84
3,0.13,1.04,0.07,42.84
3,0.13,0.94,0.19,41.63
3,0.02,0.94,0.18,39.49
3,-0.15,1.01,0.18,39.49
3,-0.18,0.93,0.11,40.92
3,-0.18,0.93,0.05,45.77
3,-0.03,1.06,0.05,45.77
3,0.13,1.07,0.06,42.53
3,0.13,1.08,0.15,48.71
3,0.05,0.95,0.15,48.69
3,-0.13,1.00,0.21,44.78
3,-0.13,0.96,0.13,39.70
3,-0.19,0.96,0.13,45.05
3,-0.07,0.99,0.07,45.05
3,-0.08,1.11,0.04,41.74
3,0.10,1.11,0.10,41.56
3,0.08,0.97,0.10,41.56
3,-0.08,0.96,0.22,39.01
3,-0.08,0.99,0.14,44.89
3,-0.20,0.99,0.14,45.02
3,-0.11,0.96,0.10,39.54
3,-0.11,1.12,0.05,46.16
3,0.07,1.12,0.05,45.67
3,0.11,1.00,0.09,45.67
3,0.09,0.93,0.21,38.54
3,-0.04,0.93,0.22,43.70
3,-0.19,1.01,0.16,43.70
3,-0.14,0.91,0.10,43.38
3,-0.14,0.91,0.05,43.34
3,0.02,1.11,0.05,43.27
3,0.14,1.03,0.07,39.35
3,0.14,0.94,0.19,40.14
3,0.01,0.94,0.19,40.41
3,-0.17,1.02,0.18,40.41
3,-0.18,0.92,0.12,42.31
3,-0.18,0.92,0.12,42.59
3,-0.02,1.06,0.06,42.59
3,0.13,1.06,0.06,43.76
3,0.13,1.06,0.16,39.68
3,0.04,0.94,0.16,39.47
3,-0.13,1.00,0.20,38.69
3,-0.13,1.01,0.14,43.60
3,-0.19,0.95,0.14,42.82
3,-0.06,1.01,0.07,42.82
3,-0.06,1.09,0.05,42.18
3,0.11,1.09,0.06,47.26
3,0.07,0.97,0.12,47.26
3,0.09,0.96,0.21,40.35
3,-0.10,0.96,0.13,44.95
3,-0.19,0.98,0.13,44.95
3,-0.10,0.96,0.08,44.18
3,-0.10,1.00,0.04,40.73
3,0.08,1.12,0.04,41.14
3,0.10,1.00,0.11,40.35
3,0.10,0.94,0.22,45.55
3,-0.05,0.94,0.22,44.57
3,-0.19,1.01,0.16,44.57
3,-0.14,0.93,0.11,48.60
3,-0.14,0.93,0.04,41.09
3,0.03,1.11,0.04,41.09
3,0.13,1.03,0.09,48.41
3,0.13,1.06,0.19,41.48
3,-0.01,0.93,0.19,41.71
3,-0.18,1.02,0.18,42.49
3,-0.18,0.91,0.11,41.02
3,-0.17,0.91,0.11,37.93
3,-0.02,1.08,0.04,37.93
3,-0.05,1.06,0.07,40.84
3,0.13,1.06,0.11,41.43
3,0.02,0.94,0.17,41.43
3,-0.15,1.00,0.20,47.07
3,-0.15,1.00,0.13,46.37
3,-0.18,0.96,0.13,46.20
3,-0.06,1.00,0.07,39.93
3,-0.06,1.02,0.05,40.15
3,0.11,1.09,0.05,41.37
3,0.07,0.97,0.12,41.37
3,0.08,0.98,0.20,44.30
3,-0.11,0.98,0.20,41.77
3,-0.19,0.98,0.14,41.77
3,-0.09,0.97,0.08,45.88
3,-0.09,0.97,0.05,48.05
3,0.08,1.10,0.05,48.05
3,0.10,0.99,0.10,41.56
3,0.10,0.95,0.22,43.90
3,-0.05,0.95,0.22,40.37
3,-0.19,1.01,0.14,40.37
3,-0.19,0.93,0.10,37.93
3,-0.12,0.93,0.11,42.26
3,0.03,1.12,0.04,42.26
3,0.05,1.02,0.09,45.03
3,0.12,1.02,0.21,40.66
3,-0.02,0.93,0.21,40.66
3,-0.18,1.02,0.16,45.25
3,-0.18,1.05,0.12,47.84
3,-0.16,0.92,0.12,47.79
3,-0.00,1.08,0.05,46.22
3,-0.00,1.05,0.07,47.15
3,0.13,1.05,0.07,38.65
3,0.03,0.94,0.17,38.65
3,0.03,1.00,0.19,38.66
3,-0.16,1.00,0.19,47.18
3,-0.18,0.94,0.13,47.18
3,-0.05,1.04,0.07,44.57
3,-0.05,1.02,0.05,44.03
3,0.12,1.08,0.05,43.85
3,0.07,0.96,0.14,42.28
3,0.07,0.98,0.21,44.81
3,-0.11,0.98,0.21,39.29
3,-0.20,0.96,0.13,39.29
3,-0.22,0.99,0.08,44.57
3,-0.09,0.99,0.11,43.27
3,0.08,1.10,0.05,43.27
3,0.08,0.98,0.11,45.32
3,0.08,0.98,0.22,44.47
3,-0.07,0.95,0.22,44.45
3,-0.19,1.00,0.15,38.96
3,-0.19,1.01,0.09,43.23
3,-0.11,0.95,0.09,43.51
3,0.05,1.11,0.05,43.51
3,0.05,1.00,0.10,43.77
3,0.12,1.00,0.09,45.69
3,-0.03,0.94,0.21,45.69
3,-0.19,1.02,0.16,46.25
3,-0.19,1.02,0.11,45.28
3,-0.15,0.92,0.11,45.28
3,0.01,1.09,0.05,40.69
3,0.01,1.10,0.08,40.52
3,0.13,1.04,0.08,40.05
3,0.01,0.94,0.18,43.18
3,0.01,1.01,0.18,44.39
3,-0.16,1.01,0.18,44.70
3,-0.18,0.93,0.12,44.70
3,-0.16,1.05,0.05,41.04
3,-0.04,1.05,0.06,47.52
3,0.12,1.07,0.06,47.52
3,0.05,0.96,0.15,40.84
3,0.05,0.99,0.20,40.20
3,-0.13,0.99,0.20,40.66
3,-0.19,0.96,0.13,45.36
3,-0.19,0.99,0.08,44.77
3,-0.07,0.99,0.08,41.01
3,0.10,1.10,0.05,41.01
3,0.08,0.98,0.12,42.28
3,0.08,0.98,0.09,43.60
3,-0.08,0.96,0.21,43.60
3,-0.19,0.99,0.13,41.10
3,-0.19,0.99,0.09,42.64
3,-0.10,0.96,0.09,42.85
3,0.05,1.11,0.05,43.64
3,0.05,1.00,0.10,41.70
3,0.11,1.00,0.10,43.15
3,-0.03,0.94,0.21,43.15
3,-0.06,1.02,0.15,40.13
3,-0.18,1.02,0.16,44.26
3,-0.13,0.92,0.10,44.26
3,0.01,1.10,0.05,43.10
3,0.01,1.10,0.09,44.53
3,0.13,1.02,0.09,44.11
3,0.01,0.95,0.19,40.97
3,0.01,0.95,0.19,40.69
3,-0.17,1.01,0.19,41.56
3,-0.17,0.93,0.12,41.56
3,-0.17,1.06,0.05,40.11
3,-0.03,1.06,0.00,40.78
3,0.12,1.06,0.07,40.78
3,0.05,0.95,0.16,37.89
3,0.05,0.95,0.19,43.25
3,-0.13,0.99,0.19,43.25
3,-0.19,0.96,0.13,42.78
3,-0.19,0.94,0.07,45.59
3,-0.07,1.01,0.07,45.96
3,0.10,1.08,0.06,46.75
3,0.10,0.98,0.13,40.33
3,0.08,0.98,0.14,44.08
3,-0.09,0.97,0.20,44.08
3,-0.07,0.98,0.13,45.37
3,-0.19,0.98,0.09,41.72
3,-0.10,0.97,0.09,41.72
3,0.06,1.10,0.05,42.02
3,0.06,1.11,0.10,41.89
3,0.11,0.99,0.10,41.74
3,-0.05,0.94,0.21,41.74
3,-0.05,1.00,0.16,42.49
3,-0.19,1.00,0.16,46.96
3,-0.13,0.94,0.11,46.96
4,-0.03,1.08,0.06,40.78
4,0.12,1.05,0.08,43.13
4,0.12,0.94,0.16,39.65
4,0.04,0.94,0.16,39.07
4,-0.14,1.00,0.19,39.07
4,-0.18,0.95,0.13,45.25
4,-0.18,0.95,0.13,46.01
4,-0.06,1.03,0.06,46.01
4,0.11,1.07,0.06,41.47
4,0.11,1.09,0.14,43.85
4,0.07,0.96,0.14,43.82
4,-0.10,0.98,0.20,45.39
4,-0.10,0.97,0.13,43.74
4,-0.19,0.97,0.13,43.32
4,-0.08,0.98,0.08,43.32
4,-0.11,1.10,0.06,44.68
4,0.08,1.10,0.04,42.41
4,0.10,0.99,0.10,42.41
4,-0.06,0.95,0.22,40.42
4,-0.06,0.95,0.14,38.94
4,-0.19,1.00,0.14,38.83
4,-0.12,0.94,0.10,42.75
4,-0.12,0.97,0.04,42.77
4,0.03,1.10,0.04,44.75
4,0.11,1.02,0.08,44.75
4,0.11,0.94,0.20,47.23
4,-0.01,0.94,0.23,46.30
4,-0.18,1.01,0.16,46.30
4,-0.16,0.93,0.10,43.42
4,-0.16,0.93,0.05,46.18
4,-0.00,1.08,0.05,46.18
4,0.13,1.05,0.07,46.40
4,0.13,1.01,0.17,40.66
4,0.03,0.95,0.17,40.07
4,-0.15,1.00,0.19,43.20
4,-0.15,0.94,0.12,42.25
4,-0.18,0.94,0.07,44.68
4,-0.05,1.04,0.07,44.68
4,-0.02,1.07,0.07,42.71
4,0.10,1.07,0.15,43.69
4,0.07,0.96,0.15,43.69
4,-0.11,0.99,0.20,42.66
4,-0.11,0.97,0.13,40.44
4,-0.18,0.97,0.13,40.01
4,-0.08,0.99,0.08,47.84
4,-0.08,1.10,0.05,42.97
4,0.08,1.10,0.05,40.02
4,0.09,0.98,0.12,40.02
4,0.12,0.95,0.22,42.90
4,-0.07,0.95,0.20,45.76
4,-0.19,0.99,0.14,45.76
4,-0.11,0.95,0.09,43.02
4,-0.11,0.95,0.04,46.69
4,0.05,1.11,0.04,46.85
4,0.11,1.01,0.09,41.36
4,0.11,0.94,0.21,41.67
4,-0.02,0.94,0.21,43.15
4,-0.18,1.01,0.15,43.15
4,-0.15,0.92,0.11,46.18
4,-0.15,0.92,0.11,45.17
4,-0.01,1.09,0.05,45.17
4,0.13,1.03,0.08,45.31
4,0.13,1.03,0.18,43.25
4,0.02,0.94,0.18,43.17
4,-0.15,1.01,0.18,44.74
4,-0.15,1.06,0.12,42.92
4,-0.16,0.93,0.12,40.37
4,-0.04,1.05,0.06,40.37
4,-0.04,1.07,0.05,44.70
4,0.11,1.07,0.02,43.83
4,0.05,0.96,0.15,43.83
4,0.01,0.99,0.19,43.93
4,-0.12,0.99,0.13,41.39
4,-0.19,0.95,0.13,41.39
4,-0.07,1.01,0.08,41.56
4,-0.07,1.02,0.06,43.75
4,0.09,1.08,0.06,43.28
4,0.08,0.97,0.12,44.85
4,0.08,0.97,0.21,42.73
4,-0.07,0.97,0.21,45.28
4,-0.19,0.99,0.15,45.28
4,-0.23,0.96,0.08,40.80
4,-0.10,0.96,0.06,45.57
4,0.05,1.10,0.06,45.57
4,0.10,1.01,0.10,44.33
4,0.10,1.01,0.21,43.23
4,-0.03,0.95,0.21,43.66
4,-0.18,1.01,0.15,40.53
4,-0.18,0.93,0.10,46.50
4,-0.13,0.93,0.10,45.14
4,0.02,1.09,0.05,45.14
4,0.06,1.03,0.09,42.30
4,0.12,1.03,0.12,46.06
4,0.01,0.94,0.18,46.06
4,-0.16,1.01,0.17,44.44
4,-0.16,1.01,0.10,48.19
4,-0.17,0.93,0.10,47.77
4,-0.04,1.06,0.06,43.85
4,-0.04,1.06,0.07,46.62
4,0.12,1.06,0.07,45.62
4,0.04,0.95,0.16,45.62
4,0.06,1.00,0.20,40.59
4,-0.13,1.00,0.19,44.57
4,-0.18,0.95,0.13,44.57
4,-0.07,1.02,0.07,39.85
4,-0.07,1.02,0.06,43.80
4,0.10,1.08,0.06,43.80
4,0.07,0.97,0.14,46.59
4,0.07,0.97,0.20,40.91
4,-0.08,0.97,0.20,42.32
4,-0.19,0.99,0.14,42.32
4,-0.19,0.97,0.08,46.48
4,-0.09,0.97,0.11,42.06
4,0.05,1.10,0.05,42.06
4,0.04,1.00,0.11,43.04
4,0.10,1.00,0.21,44.77
4,-0.05,0.95,0.21,44.77
4,-0.18,1.00,0.15,42.97
4,-0.18,0.94,0.10,41.22
4,-0.12,0.94,0.10,40.67
4,0.02,1.09,0.05,46.16
4,0.02,1.03,0.08,38.60
4,0.12,1.03,0.08,43.36
4,0.00,0.93,0.18,43.36
4,0.01,1.01,0.17,40.32
4,-0.17,1.01,0.17,45.17
4,-0.15,0.93,0.11,45.17
4,-0.02,1.07,0.05,42.52
4,-0.02,1.11,0.07,45.27
4,0.11,1.05,0.07,44.62
4,0.04,0.95,0.16,48.54
4,0.04,0.99,0.19,44.01
4,-0.13,0.99,0.19,46.87
4,-0.18,0.95,0.12,46.87
4,-0.13,1.02,0.06,41.70
4,-0.06,1.02,0.06,39.32
4,0.10,1.07,0.06,39.32
4,0.06,0.97,0.14,41.50
4,0.06,0.97,0.20,44.65
4,-0.10,0.97,0.20,44.72
4,-0.18,0.97,0.14,43.16
4,-0.18,0.98,0.08,44.54
4,-0.09,0.98,0.08,44.53
4,0.07,1.09,0.05,44.53
4,0.09,0.98,0.12,44.40
4,0.09,0.98,0.09,43.86
4,-0.06,0.95,0.21,43.86
4,-0.18,1.00,0.14,43.95
4,-0.18,1.00,0.10,41.80
4,-0.12,0.94,0.10,41.80
4,0.02,1.09,0.05,41.66
4,0.02,1.07,0.10,45.88
4,0.11,1.01,0.10,38.83
4,-0.02,0.95,0.20,38.83
4,-0.02,1.01,0.16,41.48
4,-0.17,1.01,0.17,45.70
4,-0.15,0.94,0.11,45.70
4,-0.14,1.07,0.05,48.19
4,-0.01,1.07,0.08,42.74
4,0.12,1.03,0.08,42.74
4,0.03,0.95,0.18,42.40
4,0.03,0.94,0.18,43.34
4,-0.14,1.00,0.18,43.54
4,-0.18,0.94,0.12,45.11
4,-0.18,1.04,0.06,46.89
4,-0.06,1.04,0.06,40.43
4,0.11,1.07,0.07,40.43
4,0.12,0.96,0.15,45.19
4,0.06,0.96,0.14,49.37
4,-0.11,0.98,0.20,49.37
4,-0.18,0.97,0.13,45.40
4,-0.18,0.95,0.08,41.86
4,-0.08,1.01,0.08,41.64
4,0.08,1.08,0.06,40.85
4,0.08,0.99,0.12,38.38
4,0.08,0.99,0.12,42.01
4,-0.06,0.96,0.21,42.01
4,-0.06,0.99,0.14,43.22
4,-0.18,0.99,0.14,44.01
4,-0.11,0.96,0.08,44.01
4,0.04,1.09,0.05,42.12
4,0.04,1.09,0.10,41.53
4,0.11,1.01,0.10,41.77
4,-0.02,0.95,0.20,37.07
4,-0.02,0.95,0.16,48.63
4,-0.17,1.01,0.16,48.12
4,-0.14,0.93,0.11,48.12
4,-0.14,1.08,0.05,51.41
4,0.00,1.08,0.02,48.04
4,0.11,1.03,0.08,48.04
4,0.01,0.94,0.18,41.25
4,0.01,0.94,0.18,41.29
4,-0.16,1.01,0.18,41.29
4,-0.16,0.94,0.13,47.73
4,-0.16,0.99,0.05,43.29
4,-0.04,1.05,0.05,43.63
4,0.11,1.06,0.08,43.63
4,0.11,0.96,0.14,45.92
4,0.05,0.96,0.13,38.49
4,-0.13,0.99,0.20,38.49
4,-0.18,0.96,0.12,41.54
4,-0.18,0.96,0.08,41.37
4,-0.08,1.02,0.08,41.37
4,0.08,1.08,0.05,42.02
4,0.08,1.10,0.12,42.62
4,0.08,0.97,0.12,42.68
4,-0.08,0.96,0.20,43.46
4,-0.08,0.99,0.13,44.88
4,-0.19,0.99,0.13,42.23
4,-0.11,0.96,0.09,42.23
4,-0.08,1.09,0.06,44.93
4,0.05,1.09,0.03,43.54
4,0.10,1.00,0.10,43.54
4,-0.03,0.95,0.21,47.37
4,-0.03,0.95,0.16,46.61
4,-0.17,1.01,0.16,46.40
4,-0.14,0.94,0.10,47.18
4,-0.14,1.09,0.05,37.28
4,-0.00,1.09,0.05,44.55
4,0.11,1.03,0.08,44.55
4,0.07,0.94,0.18,46.36
4,0.01,0.94,0.16,40.62
4,-0.16,1.00,0.16,40.62
4,-0.16,0.94,0.11,43.09
4,-0.16,0.94,0.05,40.40
4,-0.04,1.06,0.05,40.40
4,0.11,1.05,0.07,40.40
4,0.11,1.02,0.15,39.20
4,0.04,0.96,0.15,46.62
4,-0.12,0.99,0.19,46.62
4,-0.12,0.95,0.12,40.90
4,-0.18,0.95,0.07,42.12
4,-0.07,1.02,0.07,42.12
5,0.06,1.09,0.06,42.74
5,0.09,0.99,0.12,42.74
5,0.08,0.94,0.22,41.82
5,-0.04,0.94,0.20,41.01
5,-0.18,1.00,0.14,41.01
5,-0.13,0.95,0.10,42.34
5,-0.13,0.95,0.06,44.20
5,0.02,1.09,0.06,44.12
5,0.12,1.02,0.09,48.03
5,0.12,1.06,0.18,38.53
5,-0.00,0.93,0.18,43.03
5,-0.17,1.00,0.17,43.03
5,-0.17,0.93,0.11,42.67
5,-0.15,0.93,0.07,45.84
5,-0.02,1.06,0.07,45.84
5,0.11,1.05,0.07,47.22
5,0.11,1.05,0.16,45.39
5,0.03,0.95,0.16,45.39
5,-0.13,1.00,0.18,42.01
5,-0.13,1.01,0.12,42.82
5,-0.17,0.95,0.12,42.86
5,-0.06,1.03,0.07,43.64
5,-0.06,1.07,0.07,43.50
5,0.09,1.07,0.07,42.79
5,0.06,0.96,0.14,42.79
5,0.09,0.97,0.19,44.77
5,-0.10,0.97,0.14,45.21
5,-0.17,0.97,0.14,45.21
5,-0.09,0.99,0.08,48.27
5,-0.09,0.96,0.06,41.69
5,0.07,1.08,0.06,41.97
5,0.09,0.98,0.11,47.46
5,0.09,0.96,0.20,43.19
5,-0.06,0.96,0.20,44.26
5,-0.18,1.00,0.14,44.26
5,-0.18,0.95,0.10,44.24
5,-0.12,0.95,0.11,43.04
5,0.04,1.08,0.05,43.04
5,0.10,1.00,0.09,41.25
5,0.10,1.00,0.19,48.67
5,-0.02,0.95,0.19,48.77
5,-0.17,1.01,0.16,43.29
5,-0.17,0.95,0.11,40.90
5,-0.14,0.95,0.11,40.13
5,-0.02,1.08,0.05,40.13
5,-0.01,1.04,0.08,40.50
5,0.11,1.04,0.12,38.07
5,0.03,0.95,0.18,38.07
5,-0.14,0.99,0.18,42.32
5,-0.14,0.99,0.12,45.93
5,-0.17,0.95,0.12,45.93
5,-0.05,1.04,0.06,44.84
5,-0.05,1.06,0.07,43.71
5,0.10,1.06,0.07,42.42
5,0.06,0.97,0.14,42.42
5,0.06,0.98,0.19,43.76
5,-0.10,0.98,0.19,40.91
5,-0.18,0.98,0.12,40.91
5,-0.14,1.00,0.08,40.25
5,-0.08,1.00,0.06,47.39
5,0.08,1.08,0.06,47.39
5,0.09,0.98,0.12,42.40
5,0.09,0.96,0.21,46.29
5,-0.06,0.96,0.21,46.54
5,-0.18,0.99,0.14,45.76
5,-0.18,0.96,0.10,42.43
5,-0.12,0.96,0.10,43.29
5,0.04,1.08,0.05,43.29
5,0.04,1.01,0.10,43.44
5,0.11,1.01,0.20,43.70
5,-0.02,0.95,0.20,43.70
5,-0.17,1.00,0.15,49.31
5,-0.17,1.01,0.10,44.91
5,-0.14,0.94,0.10,44.82
5,0.00,1.07,0.06,44.03
5,0.00,1.03,0.08,42.22
5,0.11,1.03,0.08,46.92
5,0.01,0.95,0.18,46.92
5,0.04,1.01,0.17,43.26
5,-0.14,1.01,0.17,44.01
5,-0.16,0.94,0.11,44.01
5,-0.05,1.05,0.07,41.69
5,-0.05,1.05,0.07,44.58
5,0.10,1.06,0.07,44.17
5,0.04,0.97,0.16,44.95
5,0.04,0.99,0.19,44.84
5,-0.11,0.99,0.19,43.83
5,-0.17,0.97,0.12,43.83
5,-0.14,1.01,0.07,39.95
5,-0.08,1.01,0.07,48.43
5,0.08,1.07,0.07,48.43
5,0.08,0.98,0.13,44.53
5,0.08,0.98,0.20,44.88
5,-0.07,0.97,0.20,44.88
5,-0.18,0.99,0.14,39.36
5,-0.18,0.97,0.10,41.87
5,-0.10,0.97,0.10,41.53
5,0.04,1.09,0.06,42.32
5,0.04,1.01,0.10,40.57
5,0.09,1.01,0.07,38.27
5,-0.03,0.95,0.19,38.27
5,-0.05,1.00,0.15,42.46
5,-0.18,1.00,0.10,46.06
5,-0.13,0.95,0.10,46.06
5,0.01,1.08,0.06,43.92
5,0.01,1.09,0.09,43.71
5,0.11,1.02,0.09,43.03
5,0.01,0.96,0.17,42.24
5,0.01,1.01,0.17,45.28
5,-0.15,1.01,0.17,37.26
5,-0.16,0.93,0.10,37.26
5,-0.16,1.06,0.06,41.74
5,-0.03,1.06,0.07,43.92
5,0.10,1.05,0.07,43.92
5,0.04,0.96,0.16,45.69
5,0.04,1.00,0.19,43.40
5,-0.12,1.00,0.19,43.42
5,-0.17,0.94,0.12,42.64
5,-0.17,1.02,0.07,42.77
5,-0.07,1.02,0.07,43.03
5,0.09,1.07,0.06,43.03
5,0.07,0.98,0.13,44.55
5,0.07,0.98,0.14,42.64
5,-0.08,0.97,0.20,42.64
5,-0.18,0.98,0.13,44.08
5,-0.18,0.98,0.08,41.52
5,-0.10,0.98,0.08,41.59
5,0.06,1.08,0.06,44.72
5,0.06,1.12,0.12,52.35
5,0.08,1.00,0.12,43.53
5,-0.04,0.95,0.21,43.53
5,-0.04,1.00,0.14,40.83
5,-0.19,1.00,0.16,40.21
5,-0.13,0.96,0.10,40.21
5,0.01,1.08,0.06,47.74
5,0.01,1.08,0.10,45.21
5,0.11,1.02,0.10,45.21
5,-0.01,0.95,0.19,46.82
5,-0.01,0.94,0.16,45.63
5,-0.16,1.01,0.16,45.78
5,-0.15,0.95,0.11,45.78
5,-0.15,1.07,0.06,45.40
5,-0.02,1.07,0.02,44.34
5,0.11,1.03,0.08,44.34
5,0.10,0.97,0.17,40.76
5,0.04,0.97,0.18,43.20
5,-0.13,1.00,0.18,43.20
5,-0.17,0.96,0.12,41.95
5,-0.17,0.97,0.07,44.82
5,-0.07,1.03,0.07,44.92
5,0.10,1.07,0.07,42.57
5,0.10,0.97,0.14,43.79
5,0.06,0.97,0.14,42.51
5,-0.09,0.97,0.19,42.51
5,-0.10,0.97,0.13,39.87
5,-0.16,0.97,0.14,45.75
5,-0.08,0.99,0.08,45.75
5,0.06,1.07,0.06,37.91
5,0.06,1.07,0.12,41.99
5,0.09,0.98,0.12,41.90
5,-0.05,0.96,0.20,40.33
5,-0.05,0.99,0.14,45.21
5,-0.17,0.99,0.14,44.34
5,-0.12,0.95,0.09,44.34
5,-0.10,1.09,0.06,35.83
5,0.03,1.09,0.04,44.28
5,0.10,1.01,0.10,44.28
5,-0.01,0.95,0.20,47.27
5,-0.01,0.95,0.16,48.98
5,-0.16,1.00,0.16,48.62
5,-0.15,0.95,0.11,46.27
5,-0.15,0.94,0.06,43.37
5,-0.02,1.07,0.06,45.06
5,0.11,1.02,0.09,45.06
5,0.11,0.96,0.18,40.95
5,0.02,0.96,0.18,41.10
5,-0.15,0.99,0.18,41.10
5,-0.17,0.94,0.12,41.46
5,-0.17,0.94,0.07,42.23
5,-0.06,1.04,0.07,42.23
5,0.10,1.06,0.07,46.11
5,0.10,1.03,0.14,45.53
5,0.05,0.96,0.14,46.12
5,-0.10,0.98,0.19,44.55
5,-0.10,0.97,0.13,43.56
5,-0.17,0.97,0.13,44.11
5,-0.09,1.01,0.07,44.11
5,-0.12,1.07,0.06,40.41
5,0.07,1.07,0.13,42.99
5,0.08,0.99,0.13,42.99
5,-0.06,0.96,0.20,44.14
5,-0.06,0.98,0.14,41.67
5,-0.17,0.98,0.14,41.85
5,-0.11,0.96,0.09,37.93
5,-0.11,1.09,0.07,40.53
5,0.03,1.09,0.07,44.89
5,0.11,1.01,0.11,44.89
5,0.11,0.95,0.20,47.98
5,-0.02,0.95,0.21,44.67
5,-0.16,1.00,0.15,44.67
5,-0.14,0.95,0.11,45.49
5,-0.14,0.95,0.05,39.91
5,-0.00,1.07,0.05,40.54
5,0.09,1.03,0.08,50.72
5,0.09,1.01,0.17,39.67
5,0.02,0.95,0.17,41.85
5,-0.15,1.00,0.17,41.85
5,-0.17,0.95,0.12,48.06
5,-0.17,0.95,0.07,46.73
5,-0.04,1.04,0.07,46.73
5,0.10,1.06,0.08,41.61
5,0.10,1.06,0.15,46.04
5,0.04,0.96,0.15,46.04
5,-0.10,0.99,0.19,41.22
5,-0.10,0.96,0.12,40.68
5,-0.17,0.96,0.12,40.60
5,-0.08,1.01,0.07,40.60
5,-0.08,1.07,0.07,42.81
5,0.07,1.07,0.07,43.42
5,0.07,0.98,0.14,43.42
5,0.12,0.96,0.19,42.10
5,-0.07,0.96,0.14,44.05
5,-0.17,0.99,0.14,44.05
5,-0.11,0.97,0.08,41.10
5,-0.11,0.95,0.06,42.78
5,0.04,1.08,0.06,42.51
5,0.09,0.99,0.12,43.29
5,0.09,0.95,0.21,39.83
5,-0.03,0.95,0.21,40.74
5,-0.16,1.00,0.14,40.74
5,-0.13,0.96,0.10,41.12
5,-0.13,0.96,0.06,45.23
6,-0.03,1.04,0.08,44.11
6,0.10,1.04,0.11,38.45
6,0.03,0.95,0.17,38.45
6,-0.11,0.99,0.18,44.00
6,-0.11,0.99,0.12,43.09
6,-0.17,0.96,0.12,43.49
6,-0.07,1.02,0.07,43.49
6,-0.07,1.00,0.08,48.25
6,0.08,1.07,0.08,40.39
6,0.08,0.98,0.14,40.39
6,0.08,0.97,0.20,41.61
6,-0.08,0.97,0.19,39.06
6,-0.18,0.98,0.13,39.06
6,-0.10,0.99,0.08,42.73
6,-0.10,0.99,0.06,43.65
6,0.05,1.07,0.06,43.65
6,0.10,1.01,0.11,40.28
6,0.10,1.03,0.20,46.94
6,-0.04,0.96,0.20,47.37
6,-0.17,0.99,0.15,44.24
6,-0.17,0.96,0.09,44.40
6,-0.12,0.96,0.12,45.12
6,0.01,1.07,0.06,45.12
6,0.05,1.01,0.10,49.22
6,0.11,1.01,0.19,46.25
6,-0.00,0.95,0.19,46.25
6,-0.15,1.00,0.16,43.54
6,-0.15,1.01,0.11,46.31
6,-0.16,0.94,0.11,46.92
6,-0.03,1.07,0.06,38.30
6,-0.03,1.03,0.09,48.69
6,0.10,1.03,0.09,40.74
6,0.03,0.96,0.17,40.74
6,0.00,1.00,0.17,47.13
6,-0.12,1.00,0.18,41.02
6,-0.17,0.97,0.11,41.02
6,-0.07,1.03,0.06,46.69
6,-0.07,1.06,0.07,40.22
6,0.09,1.06,0.07,40.31
6,0.05,0.98,0.14,46.57
6,0.05,0.99,0.19,47.94
6,-0.09,0.99,0.19,48.08
6,-0.17,0.97,0.13,48.08
6,-0.15,0.99,0.08,46.86
6,-0.09,0.99,0.06,44.83
6,0.05,1.07,0.06,44.83
6,0.09,0.99,0.13,45.77
6,0.09,0.99,0.20,42.00
6,-0.05,0.96,0.20,42.11
6,-0.18,0.99,0.14,42.11
6,-0.18,0.97,0.10,45.45
6,-0.12,0.97,0.10,40.39
6,0.03,1.08,0.06,40.39
6,0.03,1.01,0.10,46.67
6,0.09,1.01,0.08,48.12
6,-0.01,0.95,0.20,48.12
6,-0.16,1.00,0.15,42.76
6,-0.16,1.00,0.10,49.12
6,-0.14,0.95,0.10,49.12
6,-0.02,1.07,0.05,39.25
6,-0.02,1.09,0.09,42.14
6,0.10,1.03,0.09,41.93
6,0.03,0.96,0.17,43.50
6,0.03,1.00,0.18,42.84
6,-0.13,1.00,0.18,42.22
6,-0.16,0.95,0.12,42.22
6,-0.18,1.04,0.07,44.29
6,-0.06,1.04,0.07,45.10
6,0.09,1.05,0.07,45.10
6,0.05,0.97,0.15,44.87
6,0.05,0.98,0.19,44.24
6,-0.10,0.98,0.19,44.27
6,-0.18,0.96,0.13,45.84
6,-0.18,1.00,0.08,47.08
6,-0.08,1.00,0.08,41.89
6,0.07,1.06,0.07,41.89
6,0.08,0.99,0.14,41.95
6,0.08,0.99,0.13,47.96
6,-0.06,0.96,0.19,47.96
6,-0.17,0.98,0.13,43.85
6,-0.17,0.98,0.08,48.21
6,-0.11,0.98,0.08,48.15
6,0.03,1.07,0.06,41.10
6,0.03,1.01,0.11,44.91
6,0.09,1.01,0.11,46.30
6,-0.02,0.96,0.19,46.30
6,-0.04,1.00,0.15,45.81
6,-0.16,1.00,0.16,40.74
6,-0.14,0.96,0.10,40.74
6,-0.01,1.08,0.06,43.08
6,-0.01,1.08,0.09,44.24
6,0.10,1.02,0.09,44.11
6,0.02,0.96,0.18,42.54
6,0.02,0.94,0.17,40.56
6,-0.14,1.00,0.17,43.82
6,-0.15,0.96,0.11,43.82
6,-0.15,1.05,0.06,43.55
6,-0.05,1.05,0.02,43.04
6,0.09,1.05,0.08,43.04
6,0.10,0.96,0.15,43.59
6,0.04,0.96,0.19,42.81
6,-0.11,0.99,0.19,42.81
6,-0.17,0.96,0.12,47.68
6,-0.17,0.94,0.08,42.46
6,-0.08,1.01,0.08,42.34
6,0.08,1.06,0.08,46.26
6,0.08,0.98,0.13,45.19
6,0.07,0.98,0.13,41.26
6,-0.07,0.97,0.19,41.26
6,-0.10,0.98,0.13,43.42
6,-0.16,0.98,0.09,44.37
6,-0.10,0.98,0.09,44.37
6,0.04,1.07,0.07,43.92
6,0.04,1.12,0.11,43.66
6,0.09,1.00,0.11,43.03
6,-0.03,0.96,0.20,42.24
6,-0.03,1.00,0.15,41.17
6,-0.16,1.00,0.15,41.95
6,-0.14,0.96,0.09,41.95
6,-0.13,1.07,0.06,43.45
6,-0.00,1.07,0.03,43.34
6,0.10,1.03,0.09,43.34
6,0.01,0.96,0.19,38.41
6,0.01,0.96,0.15,40.15
6,-0.14,1.00,0.15,40.04
6,-0.16,0.94,0.11,41.60
6,-0.16,0.99,0.07,40.40
6,-0.04,1.05,0.07,41.88
6,0.09,1.04,0.09,41.88
6,0.11,0.96,0.17,43.49
6,0.05,0.96,0.17,45.91
6,-0.12,1.00,0.17,45.91
6,-0.16,0.96,0.12,46.05
6,-0.16,0.96,0.07,42.84
6,-0.06,1.02,0.07,42.84
6,0.08,1.06,0.07,42.94
6,0.08,1.04,0.13,51.79
6,0.07,0.98,0.13,45.47
6,-0.08,0.97,0.19,45.47
6,-0.08,0.98,0.13,42.93
6,-0.17,0.98,0.15,47.57
6,-0.09,0.99,0.08,47.57
6,-0.07,1.07,0.07,45.36
6,0.05,1.07,0.11,46.51
6,0.09,1.00,0.11,46.51
6,-0.03,0.96,0.19,40.89
6,-0.03,0.99,0.14,46.25
6,-0.17,0.99,0.14,46.74
6,-0.12,0.97,0.09,44.39
6,-0.12,1.06,0.05,46.54
6,0.01,1.06,0.05,43.41
6,0.10,1.01,0.10,43.41
6,0.12,0.95,0.20,44.83
6,-0.01,0.95,0.22,40.39
6,-0.15,1.00,0.16,40.39
6,-0.15,0.95,0.10,37.77
6,-0.15,1.00,0.06,41.06
6,-0.03,1.06,0.06,40.77
6,0.10,1.04,0.09,43.12
6,0.10,0.97,0.16,41.14
6,0.03,0.97,0.16,49.86
6,-0.12,1.00,0.17,49.86
6,-0.10,0.95,0.11,40.33
6,-0.17,0.95,0.07,43.64
6,-0.06,1.03,0.07,43.64
6,0.08,1.05,0.08,41.68
6,0.08,1.05,0.15,48.15
6,0.06,0.98,0.15,48.14
6,-0.10,0.98,0.19,41.09
6,-0.10,0.97,0.13,41.90
6,-0.17,0.97,0.13,41.97
6,-0.10,1.00,0.09,41.97
6,-0.10,1.06,0.07,42.17
6,0.06,1.06,0.12,47.43
6,0.08,0.99,0.12,47.43
6,-0.05,0.96,0.20,43.83
6,-0.05,0.96,0.14,45.40
6,-0.17,1.00,0.14,45.40
6,-0.12,0.97,0.09,38.90
6,-0.12,0.94,0.06,47.24
6,0.02,1.07,0.06,47.22
6,0.10,1.01,0.11,45.65
6,0.10,0.96,0.19,45.45
6,-0.01,0.96,0.22,36.97
6,-0.16,1.00,0.16,36.97
6,-0.15,0.96,0.12,41.90
6,-0.15,0.96,0.06,43.82
6,-0.02,1.06,0.06,43.82
6,0.10,1.03,0.09,46.31
6,0.10,1.02,0.17,41.33
6,0.03,0.96,0.17,41.29
6,-0.12,1.00,0.17,46.77
6,-0.12,0.96,0.11,44.20
6,-0.16,0.96,0.11,41.32
6,-0.06,1.04,0.06,41.32
6,-0.04,1.05,0.08,45.88
6,0.08,1.05,0.09,44.03
6,0.05,0.97,0.15,44.03
6,-0.10,0.99,0.18,44.26
6,-0.10,0.99,0.12,42.14
6,-0.16,0.97,0.12,41.70
6,-0.09,1.01,0.08,41.70
6,-0.09,1.06,0.07,45.32
6,0.06,1.06,0.07,45.97
6,0.08,0.99,0.13,45.97
6,0.06,0.97,0.19,40.47
6,-0.06,0.97,0.20,44.07
6,-0.17,0.99,0.14,44.07
6,-0.11,0.97,0.08,41.70
6,-0.11,0.97,0.07,43.08
6,0.03,1.07,0.07,43.60
6,0.09,1.01,0.11,45.17
6,0.09,1.01,0.19,42.70
6,-0.02,0.95,0.19,40.47
6,-0.16,1.00,0.16,40.47
6,-0.16,0.96,0.09,43.93
6,-0.14,0.96,0.07,44.12
6,-0.01,1.06,0.07,44.12
6,0.10,1.02,0.10,41.70
6,0.10,1.02,0.17,41.80
6,0.02,0.96,0.17,41.80
6,-0.13,1.00,0.17,40.24
6,-0.13,1.01,0.11,49.25
6,-0.15,0.95,0.11,48.76
6,-0.05,1.04,0.06,44.84
6,-0.05,1.04,0.08,46.53
6,0.09,1.04,0.10,44.99
6,0.04,0.97,0.16,44.99
6,0.02,0.99,0.18,44.66
6,-0.11,0.99,0.12,43.56
6,-0.16,0.97,0.12,43.56
6,-0.07,1.01,0.08,45.18
7,0.04,1.06,0.07,48.00
7,0.09,1.00,0.12,42.63
7,0.09,1.02,0.20,46.36
7,-0.03,0.96,0.20,46.54
7,-0.15,1.00,0.15,39.49
7,-0.15,0.96,0.09,42.22
7,-0.13,0.96,0.09,39.67
7,0.01,1.07,0.06,39.67
7,0.03,1.02,0.11,40.06
7,0.09,1.02,0.12,44.30
7,0.01,0.96,0.18,44.30
7,-0.15,1.00,0.16,43.97
7,-0.15,1.00,0.11,40.78
7,-0.16,0.96,0.11,41.23
7,-0.04,1.05,0.07,42.01
7,-0.04,1.04,0.09,41.75
7,0.09,1.04,0.09,39.83
7,0.03,0.97,0.17,39.83
7,0.03,0.99,0.17,43.11
7,-0.11,0.99,0.19,43.83
7,-0.16,0.96,0.12,43.83
7,-0.07,1.03,0.07,41.47
7,-0.07,1.03,0.08,47.15
7,0.08,1.05,0.08,47.15
7,0.07,0.98,0.14,40.63
7,0.07,0.98,0.19,44.68
7,-0.07,0.98,0.19,45.44
7,-0.16,0.98,0.13,45.44
7,-0.16,1.00,0.08,42.36
7,-0.10,1.00,0.07,46.31
7,0.05,1.07,0.07,46.31
7,0.02,0.99,0.13,45.86
7,0.08,0.99,0.20,43.90
7,-0.03,0.96,0.20,43.90
7,-0.17,0.99,0.13,45.58
7,-0.17,0.97,0.09,49.12
7,-0.12,0.97,0.09,48.78
7,0.01,1.06,0.07,39.38
7,0.01,1.02,0.10,43.97
7,0.10,1.02,0.10,44.44
7,-0.01,0.94,0.19,44.44
7,-0.02,1.00,0.16,40.53
7,-0.15,1.00,0.17,48.00
7,-0.15,0.95,0.10,48.00
7,-0.03,1.05,0.06,40.52
7,-0.03,1.03,0.09,39.14
7,0.09,1.03,0.09,39.88
7,0.03,0.96,0.17,40.66
7,0.03,0.99,0.17,42.79
7,-0.12,0.99,0.17,43.33
7,-0.16,0.95,0.11,43.33
7,-0.19,1.03,0.07,45.79
7,-0.06,1.03,0.07,47.64
7,0.08,1.04,0.07,47.64
7,0.06,0.96,0.14,43.08
7,0.06,0.96,0.19,42.96
7,-0.09,0.98,0.19,42.89
7,-0.17,0.98,0.12,43.67
7,-0.17,0.94,0.07,43.27
7,-0.09,1.00,0.07,40.52
7,0.05,1.07,0.08,40.52
7,0.05,0.99,0.12,41.64
7,0.07,0.99,0.08,39.12
7,-0.05,0.97,0.20,39.12
7,-0.16,0.99,0.13,45.51
7,-0.16,0.99,0.08,40.51
7,-0.12,0.98,0.08,40.51
7,0.02,1.06,0.06,43.52
7,0.02,1.07,0.11,41.63
7,0.09,1.01,0.11,41.60
7,-0.01,0.96,0.18,41.60
7,-0.01,0.99,0.15,45.10
7,-0.14,0.99,0.16,42.88
7,-0.14,0.96,0.10,42.88
7,-0.15,1.06,0.06,48.14
7,-0.02,1.06,0.08,44.38
7,0.10,1.03,0.08,44.38
7,0.02,0.97,0.17,40.47
7,0.02,0.94,0.16,43.14
7,-0.12,1.00,0.16,43.67
7,-0.16,0.95,0.11,42.89
7,-0.16,1.04,0.08,43.95
7,-0.06,1.04,0.08,41.47
7,0.08,1.04,0.08,41.47
7,0.12,0.97,0.14,41.46
7,0.05,0.97,0.18,44.72
7,-0.10,0.99,0.18,44.72
7,-0.17,0.97,0.13,47.17
7,-0.17,0.97,0.07,43.29
7,-0.08,1.01,0.07,43.31
7,0.06,1.06,0.07,41.75
7,0.06,0.99,0.12,45.27
7,0.08,0.99,0.12,38.67
7,-0.06,0.97,0.19,38.67
7,-0.04,0.98,0.13,39.31
7,-0.16,0.98,0.15,45.32
7,-0.10,0.98,0.08,45.32
7,0.03,1.07,0.07,46.99
7,0.03,1.07,0.12,47.99
7,0.09,1.00,0.12,48.22
7,-0.02,0.96,0.18,45.87
7,-0.02,0.99,0.15,41.84
7,-0.16,0.99,0.15,45.53
7,-0.13,0.95,0.10,45.53
7,-0.13,1.06,0.07,44.58
7,-0.02,1.06,0.10,39.35
7,0.09,1.03,0.10,39.35
7,0.08,0.96,0.17,41.92
7,0.02,0.96,0.17,43.54
7,-0.14,1.00,0.17,43.54
7,-0.15,0.95,0.11,48.93
7,-0.15,0.98,0.08,39.90
7,-0.05,1.04,0.08,40.16
7,0.09,1.04,0.09,41.73
7,0.09,0.97,0.15,43.16
7,0.05,0.97,0.15,44.42
7,-0.10,0.99,0.18,44.42
7,-0.10,0.97,0.13,44.56
7,-0.16,0.97,0.07,40.77
7,-0.08,1.02,0.07,40.77
7,0.07,1.05,0.07,48.37
7,0.07,1.04,0.14,43.94
7,0.08,0.98,0.14,44.26
7,-0.06,0.97,0.19,45.04
7,-0.06,0.99,0.12,45.96
7,-0.16,0.99,0.12,48.32
7,-0.10,0.99,0.08,48.32
7,-0.09,1.07,0.07,43.50
7,0.03,1.07,0.12,39.57
7,0.09,1.00,0.12,39.57
7,-0.03,0.96,0.19,41.59
7,-0.03,0.96,0.14,42.29
7,-0.15,1.00,0.14,42.43
7,-0.13,0.97,0.10,47.13
7,-0.13,0.94,0.07,40.58
7,-0.01,1.06,0.07,42.32
7,0.09,1.02,0.10,42.32
7,0.07,0.96,0.18,39.87
7,0.00,0.96,0.16,42.34
7,-0.13,1.00,0.16,42.34
7,-0.15,0.96,0.10,44.27
7,-0.15,0.96,0.06,47.32
7,-0.04,1.05,0.06,47.32
7,0.08,1.03,0.09,43.12
7,0.08,1.03,0.17,42.12
7,0.04,0.97,0.17,44.45
7,-0.10,1.00,0.17,44.45
7,-0.10,0.96,0.11,42.63
7,-0.16,0.96,0.07,43.82
7,-0.08,1.02,0.07,43.82
7,-0.11,1.06,0.07,43.31
7,0.08,1.06,0.13,41.69
7,0.06,0.97,0.13,41.69
7,-0.08,0.97,0.18,36.45
7,-0.08,0.98,0.13,42.39
7,-0.17,0.98,0.13,42.82
7,-0.10,1.00,0.09,46.74
7,-0.10,1.06,0.07,44.82
7,0.04,1.06,0.07,39.08
7,0.09,1.00,0.13,39.08
7,0.08,0.96,0.18,45.84
7,-0.04,0.96,0.14,44.75
7,-0.16,1.00,0.14,44.75
7,-0.12,0.98,0.09,41.70
7,-0.12,1.00,0.07,41.20
7,0.01,1.06,0.07,41.11
7,0.09,1.02,0.10,40.33
7,0.09,0.96,0.18,43.24
7,-0.01,0.96,0.18,43.66
7,-0.14,1.00,0.15,43.66
7,-0.14,0.97,0.11,43.50
7,-0.14,0.97,0.12,46.80
7,-0.03,1.05,0.06,46.80
7,0.09,1.02,0.11,40.64
7,0.09,1.02,0.17,43.59
7,0.03,0.97,0.17,43.68
7,-0.11,0.99,0.17,41.33
7,-0.11,0.96,0.11,44.64
7,-0.15,0.96,0.11,43.94
7,-0.06,1.04,0.07,43.94
7,-0.06,1.05,0.08,39.05
7,0.08,1.05,0.08,42.75
7,0.06,0.97,0.14,42.75
7,-0.08,0.98,0.18,46.30
7,-0.08,0.98,0.12,40.84
7,-0.17,0.97,0.12,40.84
7,-0.09,1.01,0.07,38.50
7,-0.09,1.06,0.07,44.61
7,0.05,1.06,0.07,43.18
7,0.08,0.99,0.12,43.18
7,0.08,0.97,0.19,46.30
7,-0.05,0.97,0.20,45.72
7,-0.16,0.98,0.14,45.72
7,-0.18,0.98,0.09,44.44
7,-0.11,0.98,0.07,44.97
7,0.01,1.05,0.07,44.97
7,0.08,1.01,0.11,47.92
7,0.08,1.04,0.18,43.90
7,-0.01,0.97,0.18,44.06
7,-0.15,0.99,0.14,43.27
7,-0.15,0.95,0.10,44.03
7,-0.14,0.95,0.10,42.15
7,-0.02,1.05,0.07,42.15
7,-0.04,1.02,0.10,42.34
7,0.08,1.02,0.11,43.71
7,0.02,0.96,0.18,43.71
7,-0.12,0.99,0.16,42.44
7,-0.12,0.97,0.11,39.18
7,-0.16,0.97,0.11,39.70
7,-0.05,1.04,0.07,40.48
7,-0.05,1.04,0.09,41.77
7,0.08,1.04,0.09,45.36
7,0.05,0.97,0.15,45.36
7,0.04,0.98,0.18,44.52
7,-0.09,0.98,0.18,42.86
7,-0.16,0.97,0.12,42.86
7,-0.09,1.01,0.08,44.91
7,-0.09,1.01,0.08,42.30
7,0.06,1.06,0.08,42.61
7,0.08,0.99,0.13,39.48
7,0.08,0.97,0.19,43.27
7,-0.06,0.97,0.19,36.22
7,-0.16,0.99,0.13,36.22
7,-0.16,0.99,0.09,38.96
7,-0.11,0.99,0.06,42.38
7,0.03,1.06,0.06,42.38
7,0.09,1.00,0.12,40.93
7,0.09,1.00,0.18,38.17
7,-0.01,0.96,0.18,38.17
7,-0.15,1.00,0.14,46.77
7,-0.15,0.97,0.10,44.36
7,-0.13,0.97,0.10,44.52
8,-0.05,1.03,0.09,40.21
8,0.08,1.03,0.09,40.21
8,0.05,0.97,0.17,43.35
8,0.05,0.99,0.18,43.71
8,-0.10,0.99,0.18,41.97
8,-0.16,0.98,0.11,41.97
8,-0.14,1.01,0.08,42.87
8,-0.08,1.01,0.07,41.05
8,0.07,1.05,0.07,41.05
8,0.06,0.99,0.14,41.59
8,0.06,0.97,0.18,41.26
8,-0.07,0.97,0.18,40.73
8,-0.16,0.98,0.11,41.51
8,-0.16,1.00,0.09,43.00
8,-0.10,1.00,0.09,38.12
8,0.03,1.06,0.06,38.12
8,0.03,1.00,0.11,44.40
8,0.09,1.00,0.12,48.31
8,-0.02,0.97,0.18,48.31
8,-0.16,0.99,0.14,41.81
8,-0.16,0.99,0.10,36.30
8,-0.13,0.97,0.10,36.23
8,-0.01,1.07,0.07,38.58
8,-0.01,1.08,0.10,42.78
8,0.09,1.02,0.10,42.95
8,0.01,0.96,0.18,42.95
8,0.06,1.00,0.15,45.21
8,-0.13,1.00,0.16,44.05
8,-0.15,0.96,0.10,44.05
8,-0.04,1.04,0.08,41.10
8,-0.04,1.04,0.09,39.45
8,0.08,1.03,0.09,39.45
8,0.03,0.98,0.17,42.64
8,0.03,0.99,0.17,44.42
8,-0.10,0.99,0.17,44.06
8,-0.16,0.97,0.12,43.27
8,-0.16,1.02,0.07,41.55
8,-0.07,1.02,0.07,48.84
8,0.07,1.04,0.07,48.84
8,0.12,0.99,0.13,45.27
8,0.06,0.99,0.18,41.19
8,-0.07,0.98,0.18,41.19
8,-0.16,0.98,0.13,42.40
8,-0.16,1.00,0.09,49.74
8,-0.10,1.00,0.09,50.00
8,0.05,1.05,0.07,43.73
8,0.05,0.99,0.13,43.72
8,0.08,0.99,0.13,39.94
8,-0.04,0.96,0.18,39.94
8,-0.03,0.99,0.14,41.49
8,-0.16,0.99,0.15,38.97
8,-0.12,0.98,0.09,38.97
8,0.01,1.06,0.07,44.48
8,0.01,1.01,0.11,44.16
8,0.08,1.01,0.11,44.37
8,-0.01,0.96,0.18,42.02
8,-0.01,1.00,0.15,39.65
8,-0.14,1.00,0.15,45.80
8,-0.14,0.96,0.10,45.80
8,-0.15,1.05,0.06,44.52
8,-0.03,1.05,0.03,41.93
8,0.08,1.03,0.10,41.93
8,0.03,0.97,0.16,38.97
8,0.03,0.97,0.17,40.96
8,-0.12,1.00,0.17,41.28
8,-0.16,0.97,0.12,43.63
8,-0.16,0.97,0.08,41.50
8,-0.07,1.03,0.08,44.31
8,0.08,1.05,0.08,44.31
8,0.08,0.97,0.15,43.21
8,0.06,0.97,0.18,44.73
8,-0.08,0.98,0.18,44.73
8,-0.16,0.98,0.13,43.29
8,-0.16,0.98,0.08,41.46
8,-0.10,1.01,0.08,41.46
8,0.05,1.05,0.08,44.33
8,0.05,1.06,0.13,46.81
8,0.07,1.00,0.13,46.21
8,-0.05,0.97,0.19,38.38
8,-0.05,0.99,0.13,42.87
8,-0.15,0.99,0.15,46.53
8,-0.12,0.98,0.09,46.53
8,-0.10,1.07,0.07,40.58
8,0.02,1.07,0.11,42.49
8,0.08,1.01,0.11,42.49
8,-0.01,0.97,0.19,39.87
8,-0.01,0.99,0.14,39.47
8,-0.15,0.99,0.14,39.43
8,-0.13,0.96,0.10,43.35
8,-0.13,1.06,0.07,38.36
8,-0.02,1.06,0.07,36.25
8,0.09,1.03,0.10,36.25
8,0.09,0.96,0.17,40.15
8,0.03,0.96,0.16,44.70
8,-0.13,0.99,0.16,44.70
8,-0.16,0.96,0.11,44.55
8,-0.16,0.96,0.07,46.09
8,-0.05,1.04,0.07,45.46
8,0.08,1.03,0.09,41.55
8,0.08,0.98,0.16,41.96
8,0.05,0.98,0.16,46.65
8,-0.09,0.99,0.18,46.65
8,-0.10,0.97,0.11,43.08
8,-0.16,0.97,0.08,44.20
8,-0.09,1.01,0.08,44.20
8,0.05,1.06,0.08,44.21
8,0.05,1.06,0.13,41.18
8,0.07,0.99,0.13,41.26
8,-0.06,0.97,0.17,45.17
8,-0.06,0.98,0.12,42.64
8,-0.16,0.98,0.12,40.96
8,-0.11,0.99,0.08,40.96
8,-0.11,1.06,0.07,46.20
8,0.02,1.06,0.12,41.42
8,0.08,1.00,0.12,41.42
8,0.10,0.96,0.19,43.77
8,-0.02,0.96,0.14,47.04
8,-0.15,1.00,0.14,47.04
8,-0.13,0.97,0.09,40.10
8,-0.13,0.99,0.07,41.25
8,-0.02,1.05,0.07,40.85
8,0.09,1.01,0.11,41.63
8,0.09,0.96,0.18,44.75
8,0.01,0.96,0.18,38.78
8,-0.12,1.00,0.16,38.78
8,-0.08,0.96,0.11,41.00
8,-0.15,0.96,0.06,39.38
8,-0.04,1.03,0.06,39.38
8,0.08,1.04,0.09,43.63
8,0.08,1.04,0.16,44.26
8,0.04,0.98,0.16,44.18
8,-0.10,0.99,0.17,44.97
8,-0.10,0.97,0.12,42.37
8,-0.15,0.97,0.12,40.17
8,-0.08,1.02,0.08,40.17
8,-0.07,1.04,0.08,41.04
8,0.06,1.04,0.08,42.16
8,0.06,0.98,0.14,42.16
8,-0.07,0.98,0.18,43.98
8,-0.07,0.98,0.13,44.80
8,-0.15,0.98,0.13,44.62
8,-0.11,0.99,0.08,43.84
8,-0.11,0.98,0.08,44.09
8,0.03,1.04,0.08,40.79
8,0.08,1.00,0.13,40.79
8,0.09,0.96,0.19,46.44
8,-0.03,0.96,0.14,39.76
8,-0.15,0.99,0.14,39.76
8,-0.13,0.98,0.10,39.22
8,-0.13,0.98,0.07,40.90
8,-0.00,1.06,0.07,40.90
8,0.08,1.01,0.11,45.83
8,0.08,1.03,0.18,42.41
8,0.00,0.96,0.18,39.91
8,-0.13,1.00,0.16,39.91
8,-0.13,0.97,0.10,43.47
8,-0.15,0.97,0.07,45.68
8,-0.04,1.04,0.07,45.68
8,-0.04,1.03,0.09,38.91
8,0.08,1.03,0.15,41.10
8,0.04,0.97,0.15,41.10
8,-0.10,0.99,0.16,46.95
8,-0.10,0.97,0.11,44.45
8,-0.16,0.97,0.11,43.92
8,-0.06,1.03,0.07,46.27
8,-0.06,1.04,0.08,45.54
8,0.06,1.04,0.08,46.36
8,0.06,0.98,0.15,46.36
8,0.05,0.98,0.18,39.09
8,-0.07,0.98,0.18,43.21
8,-0.16,0.98,0.12,43.21
8,-0.10,1.01,0.08,45.39
8,-0.10,1.05,0.08,46.44
8,0.03,1.05,0.08,46.80
8,0.08,1.00,0.13,46.02
8,0.08,0.97,0.17,43.26
8,-0.03,0.97,0.17,41.18
8,-0.15,0.98,0.13,41.18
8,-0.13,0.97,0.09,42.37
8,-0.13,0.97,0.07,46.32
8,0.00,1.05,0.07,46.32
8,0.09,1.01,0.11,41.24
8,0.09,1.01,0.18,42.82
8,0.00,0.97,0.18,42.95
8,-0.13,0.99,0.15,42.16
8,-0.13,0.97,0.11,43.36
8,-0.13,0.97,0.11,42.49
8,-0.03,1.05,0.07,42.49
8,-0.05,1.03,0.10,41.28
8,0.08,1.03,0.11,41.70
8,0.04,0.97,0.17,41.70
8,-0.11,0.99,0.16,45.98
8,-0.11,0.99,0.10,41.76
8,-0.15,0.97,0.10,41.76
8,-0.07,1.02,0.07,42.51
8,-0.07,1.04,0.08,40.03
8,0.07,1.04,0.08,40.25
8,0.06,0.98,0.15,42.60
8,0.06,0.98,0.17,44.65
8,-0.08,0.98,0.18,42.39
8,-0.15,0.97,0.12,42.39
8,-0.16,1.01,0.08,44.30
8,-0.10,1.01,0.08,46.10
8,0.05,1.06,0.08,46.10
8,0.07,1.00,0.14,43.73
8,0.07,0.97,0.19,44.74
8,-0.05,0.97,0.19,45.25
8,-0.15,0.99,0.14,43.69
8,-0.15,0.99,0.08,42.67
8,-0.12,0.99,0.08,40.17
8,0.01,1.05,0.07,40.17
8,0.02,1.01,0.12,41.21
8,0.09,1.01,0.12,42.74
8,-0.01,0.96,0.18,42.74
8,-0.14,0.99,0.14,42.07
8,-0.14,0.99,0.10,44.37
8,-0.13,0.97,0.10,44.36
8,-0.02,1.05,0.07,45.14
8,-0.02,1.03,0.10,44.35
8,0.08,1.03,0.10,41.67
8,0.02,0.97,0.17,41.67
8,0.01,0.99,0.16,43.57
8,-0.11,0.99,0.17,39.70
8,-0.14,0.96,0.11,39.70
8,-0.05,1.03,0.07,42.74
8,-0.05,1.03,0.09,41.95
8,0.07,1.04,0.09,41.51
8,0.06,0.98,0.16,42.30
8,0.06,1.00,0.17,43.47
8,-0.08,1.00,0.17,43.35
8,-0.15,0.97,0.12,43.35
8,-0.15,1.01,0.07,42.22
9,0.02,1.05,0.07,40.71
9,0.02,1.01,0.11,41.63
9,0.08,1.01,0.12,42.07
9,-0.02,0.97,0.18,42.07
9,-0.02,0.99,0.14,41.87
9,-0.14,0.99,0.11,43.38
9,-0.12,0.97,0.11,43.38
9,-0.01,1.05,0.08,37.19
9,-0.01,1.03,0.10,41.36
9,0.08,1.03,0.10,40.86
9,0.02,0.96,0.17,44.00
9,0.02,1.00,0.16,47.83
9,-0.12,1.00,0.16,42.18
9,-0.14,0.96,0.10,42.18
9,-0.18,1.04,0.07,41.54
9,-0.05,1.04,0.09,41.34
9,0.07,1.03,0.09,41.34
9,0.05,0.98,0.16,43.75
9,0.05,1.00,0.17,42.47
9,-0.09,1.00,0.17,42.66
9,-0.15,0.98,0.10,46.58
9,-0.15,1.02,0.08,44.91
9,-0.08,1.02,0.08,40.84
9,0.06,1.04,0.09,40.84
9,0.06,0.99,0.14,44.74
9,0.06,0.99,0.18,43.25
9,-0.06,0.98,0.18,43.25
9,-0.16,0.98,0.14,44.20
9,-0.16,0.98,0.08,42.26
9,-0.11,0.99,0.08,42.98
9,0.03,1.05,0.08,44.55
9,0.03,1.00,0.12,41.83
9,0.07,1.00,0.12,43.05
9,-0.03,0.97,0.18,43.05
9,-0.02,0.99,0.14,42.58
9,-0.15,0.99,0.17,41.47
9,-0.13,0.98,0.10,41.47
9,-0.01,1.04,0.07,38.97
9,-0.01,1.04,0.12,42.75
9,0.08,1.02,0.12,42.75
9,0.01,0.97,0.17,41.06
9,0.01,0.99,0.15,40.39
9,-0.13,0.99,0.15,40.21
9,-0.14,0.97,0.11,40.99
9,-0.14,1.05,0.07,42.80
9,-0.03,1.05,0.10,45.20
9,0.08,1.03,0.10,45.20
9,0.10,0.98,0.16,44.12
9,0.04,0.98,0.16,39.08
9,-0.10,0.99,0.16,39.08
9,-0.15,0.97,0.12,43.00
9,-0.15,0.96,0.07,38.37
9,-0.08,1.02,0.07,39.03
9,0.06,1.05,0.08,43.73
9,0.06,0.99,0.14,39.84
9,0.05,0.99,0.14,41.27
9,-0.07,0.97,0.18,41.27
9,-0.09,0.98,0.12,43.04
9,-0.15,0.98,0.08,45.30
9,-0.10,1.01,0.08,45.30
9,0.04,1.05,0.08,39.77
9,0.04,1.05,0.13,44.52
9,0.07,0.99,0.13,44.28
9,-0.03,0.98,0.18,40.36
9,-0.03,0.99,0.14,38.07
9,-0.15,0.99,0.14,41.88
9,-0.12,0.99,0.09,41.88
9,-0.12,1.05,0.07,41.87
9,0.01,1.05,0.12,41.24
9,0.08,1.01,0.12,41.24
9,0.00,0.96,0.18,39.40
9,0.00,0.96,0.15,42.31
9,-0.13,1.00,0.15,42.98
9,-0.14,0.97,0.10,47.68
9,-0.14,0.98,0.07,40.18
9,-0.02,1.04,0.07,42.23
9,0.07,1.03,0.10,42.23
9,0.07,0.97,0.17,45.17
9,0.03,0.97,0.16,43.18
9,-0.11,0.98,0.16,43.18
9,-0.15,0.96,0.10,43.54
9,-0.15,0.96,0.07,41.11
9,-0.06,1.03,0.07,41.11
9,0.06,1.04,0.09,41.32
9,0.06,1.04,0.15,37.97
9,0.05,0.98,0.15,38.23
9,-0.08,0.98,0.17,42.93
9,-0.08,0.98,0.12,41.40
9,-0.16,0.98,0.09,42.82
9,-0.09,1.02,0.09,42.82
9,-0.09,1.04,0.09,46.81
9,0.04,1.04,0.13,48.93
9,0.07,1.00,0.13,48.93
9,-0.04,0.98,0.18,44.35
9,-0.04,0.99,0.13,48.35
9,-0.15,0.99,0.13,48.37
9,-0.12,0.99,0.09,41.32
9,-0.12,1.05,0.07,41.90
9,0.02,1.05,0.07,42.17
9,0.08,1.01,0.12,42.17
9,0.12,0.96,0.18,40.09
9,-0.01,0.96,0.15,43.88
9,-0.14,0.99,0.15,43.88
9,-0.14,0.97,0.09,39.91
9,-0.14,0.97,0.07,41.59
9,-0.02,1.04,0.07,41.51
9,0.08,1.02,0.10,40.73
9,0.08,0.97,0.17,42.59
9,0.02,0.97,0.17,40.90
9,-0.12,1.00,0.15,40.90
9,-0.08,0.97,0.10,44.93
9,-0.14,0.97,0.07,39.58
9,-0.05,1.03,0.07,39.58
9,0.06,1.04,0.09,41.87
9,0.06,1.04,0.14,44.43
9,0.05,0.98,0.14,44.43
9,-0.08,0.99,0.18,46.36
9,-0.08,0.97,0.12,41.00
9,-0.16,0.97,0.12,38.75
9,-0.08,1.02,0.08,38.75
9,-0.08,1.05,0.07,41.44
9,0.05,1.05,0.08,41.74
9,0.06,0.99,0.14,41.74
9,0.01,0.98,0.18,43.34
9,-0.05,0.98,0.13,40.26
9,-0.15,0.98,0.13,40.26
9,-0.12,0.99,0.08,39.47
9,-0.12,0.98,0.08,40.81
9,0.02,1.05,0.08,40.71
9,0.08,1.00,0.11,41.50
9,0.08,0.98,0.18,42.23
9,-0.02,0.98,0.18,41.70
9,-0.14,0.99,0.14,41.70
9,-0.13,0.98,0.09,44.53
9,-0.13,0.98,0.08,41.43
9,-0.01,1.04,0.08,41.43
9,0.08,1.01,0.11,44.05
9,0.08,1.03,0.18,44.63
9,0.01,0.97,0.18,44.96
9,-0.11,0.99,0.15,47.31
9,-0.11,0.96,0.10,41.15
9,-0.15,0.96,0.10,40.11
9,-0.05,1.04,0.08,40.11
9,-0.05,1.03,0.09,44.87
9,0.07,1.03,0.10,42.23
9,0.04,0.98,0.16,42.23
9,-0.09,0.99,0.17,39.74
9,-0.09,0.99,0.12,44.46
9,-0.15,0.97,0.12,43.93
9,-0.08,1.02,0.08,43.14
9,-0.08,1.04,0.08,42.19
9,0.05,1.04,0.08,44.43
9,0.06,0.99,0.15,44.43
9,0.12,0.99,0.17,41.37
9,-0.06,0.99,0.13,44.30
9,-0.15,0.98,0.13,44.30
9,-0.10,1.01,0.09,44.37
9,-0.10,1.01,0.08,44.81
9,0.03,1.04,0.08,44.81
9,0.07,1.00,0.12,44.33
9,0.07,1.03,0.18,44.82
9,-0.03,0.97,0.18,46.28
9,-0.14,0.99,0.13,46.28
9,-0.14,0.98,0.08,45.21
9,-0.14,0.98,0.07,39.36
9,-0.01,1.05,0.07,39.36
9,-0.05,1.01,0.11,47.46
9,0.08,1.01,0.16,44.04
9,0.01,0.97,0.16,44.04
9,-0.12,0.99,0.15,48.82
9,-0.12,0.98,0.10,48.52
9,-0.14,0.98,0.10,49.01
9,-0.04,1.04,0.07,43.52
9,-0.04,1.03,0.09,41.16
9,0.07,1.03,0.09,41.42
9,0.03,0.97,0.17,41.42
9,0.03,1.00,0.15,40.30
9,-0.10,1.00,0.17,46.13
9,-0.15,0.97,0.11,46.13
9,-0.07,1.03,0.08,41.55
9,-0.07,1.04,0.09,41.03
9,0.06,1.04,0.09,41.39
9,0.06,0.99,0.14,42.96
9,0.06,0.98,0.17,42.02
9,-0.07,0.98,0.17,43.27
9,-0.14,0.98,0.13,43.27
9,-0.16,1.01,0.08,41.36
9,-0.09,1.01,0.07,45.14
9,0.03,1.04,0.07,45.14
9,0.08,0.99,0.13,43.38
9,0.08,0.99,0.18,42.57
9,-0.03,0.97,0.18,42.51
9,-0.15,0.98,0.13,42.51
9,-0.15,0.99,0.08,44.27
9,-0.12,0.99,0.08,42.77
9,0.00,1.04,0.08,42.77
9,0.00,1.01,0.12,43.09
9,0.08,1.01,0.11,41.46
9,-0.00,0.97,0.17,41.46
9,-0.14,0.99,0.15,45.43
9,-0.14,0.99,0.10,40.70
9,-0.14,0.98,0.10,40.70
9,-0.03,1.04,0.07,45.53
9,-0.03,1.02,0.11,40.68
9,0.08,1.02,0.11,41.40
9,0.02,0.96,0.18,39.05
9,0.02,0.99,0.15,46.55
9,-0.11,0.99,0.17,40.88
9,-0.15,0.97,0.10,40.88
9,-0.13,1.02,0.07,43.12
9,-0.07,1.02,0.09,42.06
9,0.06,1.03,0.09,42.06
9,0.05,0.98,0.15,46.68
9,0.05,0.98,0.17,44.67
9,-0.06,0.98,0.17,45.03
9,-0.15,0.98,0.12,41.90
9,-0.15,1.02,0.07,42.78
9,-0.09,1.02,0.07,45.20
9,0.04,1.05,0.08,45.20
9,0.00,0.99,0.12,43.57
9,0.07,0.99,0.12,43.96
9,-0.05,0.97,0.18,43.96
9,-0.15,0.98,0.14,44.49
9,-0.15,0.98,0.09,42.47
9,-0.11,1.00,0.09,42.77
9,0.02,1.04,0.07,43.55
9,0.02,1.00,0.13,40.16
9,0.07,1.00,0.13,42.26
9,-0.01,0.98,0.17,42.26
9,-0.01,0.99,0.15,41.16
9,-0.13,0.99,0.16,44.29
9,-0.14,0.98,0.10,44.29
10,-0.06,1.03,0.10,43.92
10,0.07,1.03,0.10,45.60
10,0.04,0.97,0.15,45.60
10,0.04,0.99,0.17,43.47
10,-0.09,0.99,0.17,40.99
10,-0.15,0.97,0.11,40.99
10,-0.08,1.02,0.08,43.32
10,-0.08,1.02,0.09,42.96
10,0.05,1.03,0.09,42.96
10,0.06,0.99,0.14,46.76
10,0.06,0.98,0.18,41.02
10,-0.06,0.98,0.18,40.70
10,-0.16,0.97,0.14,41.48
10,-0.16,1.00,0.08,44.92
10,-0.10,1.00,0.08,49.99
10,0.02,1.05,0.08,49.99
10,0.01,1.00,0.13,43.43
10,0.07,1.00,0.18,42.98
10,-0.03,0.97,0.18,42.98
10,-0.15,0.99,0.13,47.03
10,-0.15,0.98,0.09,43.29
10,-0.12,0.98,0.09,43.36
10,0.00,1.04,0.08,41.80
10,0.00,1.01,0.11,42.59
10,0.08,1.01,0.11,47.06
10,0.01,0.97,0.17,47.06
10,0.06,1.00,0.15,41.43
10,-0.13,1.00,0.17,46.44
10,-0.14,0.97,0.11,46.44
10,-0.04,1.04,0.07,45.46
10,-0.04,1.04,0.10,41.99
10,0.07,1.02,0.10,41.81
10,0.03,0.97,0.17,44.16
10,0.03,0.99,0.17,42.99
10,-0.10,0.99,0.17,40.59
10,-0.15,0.97,0.11,40.59
10,-0.15,1.03,0.07,43.97
10,-0.07,1.03,0.08,44.43
10,0.06,1.03,0.08,44.43
10,0.05,0.99,0.14,43.24
10,0.05,0.99,0.17,42.72
10,-0.07,0.97,0.17,42.72
10,-0.15,0.98,0.12,38.79
10,-0.15,0.94,0.08,43.14
10,-0.10,1.00,0.08,43.29
10,0.04,1.04,0.09,44.86
10,0.04,0.99,0.13,43.96
10,0.06,0.99,0.13,48.70
10,-0.04,0.98,0.18,48.70
10,-0.02,0.98,0.14,41.72
10,-0.14,0.98,0.15,39.95
10,-0.12,0.99,0.09,39.95
10,0.01,1.04,0.08,44.01
10,0.01,1.04,0.12,46.67
10,0.08,1.01,0.12,46.30
10,0.00,0.96,0.17,43.16
10,0.00,0.99,0.14,40.80
10,-0.13,0.99,0.14,39.52
10,-0.14,0.98,0.10,39.52
10,-0.15,1.04,0.08,42.50
10,-0.03,1.04,0.11,40.35
10,0.07,1.02,0.11,40.35
10,0.02,0.97,0.17,40.87
10,0.02,0.97,0.16,46.46
10,-0.10,0.99,0.16,46.46
10,-0.14,0.97,0.12,43.09
10,-0.14,0.97,0.07,43.00
10,-0.05,1.03,0.07,42.96
10,0.06,1.04,0.09,40.61
10,0.06,0.97,0.15,40.51
10,0.05,0.97,0.15,42.67
10,-0.07,0.98,0.17,42.67
10,-0.09,0.97,0.12,45.76
10,-0.15,0.97,0.08,45.47
10,-0.10,1.01,0.08,45.47
10,0.05,1.04,0.09,43.83
10,0.05,1.06,0.14,41.82
10,0.06,0.99,0.14,41.78
10,-0.04,0.98,0.17,42.56
10,-0.04,0.98,0.12,45.47
10,-0.14,0.98,0.12,46.21
10,-0.12,0.99,0.09,46.21
10,-0.11,1.05,0.07,47.19
10,0.01,1.05,0.12,44.66
10,0.08,1.01,0.12,44.66
10,-0.01,0.97,0.17,43.75
10,-0.01,0.97,0.14,39.98
10,-0.13,0.99,0.14,40.26
10,-0.13,0.98,0.10,48.87
10,-0.13,0.98,0.08,42.18
10,-0.02,1.05,0.08,39.67
10,0.08,1.02,0.10,39.67
10,0.08,0.97,0.16,41.75
10,0.02,0.97,0.16,45.00
10,-0.10,0.99,0.16,45.00
10,-0.07,0.97,0.11,39.85
10,-0.14,0.97,0.08,47.48
10,-0.05,1.03,0.08,47.48
10,0.06,1.03,0.10,49.39
10,0.06,1.04,0.15,44.30
10,0.05,0.98,0.15,43.84
10,-0.08,1.00,0.17,43.06
10,-0.08,0.97,0.11,44.61
10,-0.15,0.97,0.11,41.43
10,-0.09,1.01,0.08,41.43
10,-0.08,1.03,0.09,40.92
10,0.05,1.03,0.08,44.93
10,0.07,1.00,0.15,44.93
10,-0.05,0.98,0.17,42.37
10,-0.05,0.98,0.13,41.06
10,-0.15,0.98,0.13,40.88
10,-0.11,1.00,0.09,41.66
10,-0.11,1.05,0.08,44.16
10,0.02,1.05,0.08,42.41
10,0.08,1.01,0.12,42.41
10,0.11,0.97,0.17,41.75
10,-0.01,0.97,0.14,49.20
10,-0.13,0.99,0.14,49.20
10,-0.13,0.99,0.10,42.74
10,-0.13,0.99,0.08,44.75
10,-0.01,1.03,0.08,44.75
10,0.07,1.02,0.11,37.06
10,0.07,1.04,0.17,40.88
10,0.01,0.98,0.17,41.39
10,-0.12,1.00,0.15,42.17
10,-0.12,0.97,0.11,41.83
10,-0.14,0.97,0.08,44.48
10,-0.04,1.03,0.08,44.48
10,-0.05,1.02,0.09,40.51
10,0.08,1.02,0.16,39.14
10,0.04,0.98,0.16,39.14
10,-0.09,0.99,0.16,41.79
10,-0.09,0.97,0.12,44.97
10,-0.15,0.97,0.12,44.87
10,-0.07,1.02,0.08,40.17
10,-0.07,1.03,0.09,48.26
10,0.05,1.03,0.09,40.37
10,0.07,0.99,0.14,40.37
10,0.07,0.98,0.17,45.62
10,-0.06,0.98,0.18,44.88
10,-0.14,0.99,0.12,44.88
10,-0.11,1.00,0.08,44.58
10,-0.11,1.00,0.08,43.29
10,0.03,1.04,0.08,43.36
10,0.07,1.00,0.13,44.14
10,0.07,1.03,0.18,45.82
10,-0.03,0.97,0.18,41.74
10,-0.14,0.99,0.14,41.74
10,-0.14,0.99,0.10,37.94
10,-0.12,0.99,0.08,44.98
10,-0.01,1.04,0.08,44.98
10,-0.06,1.01,0.12,38.24
10,0.06,1.01,0.17,43.34
10,0.00,0.97,0.17,43.34
10,-0.12,0.99,0.14,40.49
10,-0.12,0.98,0.10,43.66
10,-0.14,0.98,0.10,43.14
10,-0.04,1.03,0.07,43.14
10,-0.04,1.02,0.11,39.07
10,0.06,1.02,0.11,41.87
10,0.03,0.97,0.16,41.87
10,0.03,1.00,0.16,44.29
10,-0.10,1.00,0.17,43.77
10,-0.15,0.97,0.10,43.77
10,-0.08,1.02,0.08,41.81
10,-0.08,1.02,0.09,45.84
10,0.06,1.03,0.09,46.08
10,0.05,0.98,0.15,44.51
10,0.05,0.99,0.17,44.92
10,-0.07,0.99,0.17,44.85
10,-0.15,0.97,0.12,44.85
10,-0.16,1.02,0.08,44.22
10,-0.10,1.02,0.09,42.52
10,0.03,1.04,0.09,42.52
10,0.06,1.00,0.14,38.52
10,0.06,1.00,0.17,39.38
10,-0.03,0.98,0.17,39.38
10,-0.14,0.99,0.13,41.01
10,-0.14,1.00,0.09,40.98
10,-0.12,1.00,0.09,41.19
10,0.00,1.04,0.07,43.54
10,0.00,1.02,0.12,44.18
10,0.07,1.02,0.12,47.85
10,0.00,0.97,0.18,47.85
10,0.06,0.99,0.14,42.28
10,-0.13,0.99,0.15,43.10
10,-0.13,0.98,0.09,43.10
10,-0.03,1.04,0.08,39.67
10,-0.03,1.03,0.11,44.03
10,0.07,1.03,0.11,44.01
10,0.03,0.97,0.17,42.44
10,0.03,0.99,0.14,42.40
10,-0.10,0.99,0.14,42.74
10,-0.15,0.98,0.11,42.74
10,-0.13,1.03,0.07,46.15
10,-0.06,1.03,0.10,44.62
10,0.07,1.04,0.10,44.62
10,0.05,0.98,0.15,43.40
10,0.05,0.98,0.17,44.62
10,-0.07,0.99,0.17,44.62
10,-0.14,0.98,0.12,44.12
10,-0.14,0.95,0.07,42.03
11,0.01,1.04,0.08,42.53
11,0.01,1.00,0.13,46.39
11,0.07,1.00,0.18,43.34
11,-0.01,0.97,0.18,43.34
11,-0.01,0.99,0.14,46.81
11,-0.13,0.99,0.09,43.47
11,-0.13,0.98,0.09,43.47
11,-0.03,1.04,0.08,42.56
11,-0.03,1.02,0.10,43.12
11,0.08,1.02,0.10,43.10
11,0.02,0.97,0.17,39.97
11,0.02,0.99,0.16,40.12
11,-0.11,0.99,0.16,41.79
11,-0.14,0.97,0.10,41.79
11,-0.18,1.03,0.08,38.43
11,-0.05,1.03,0.09,46.69
11,0.07,1.04,0.09,46.69
11,0.03,0.98,0.15,43.65
11,0.03,0.98,0.17,50.32
11,-0.08,0.99,0.17,50.57
11,-0.14,0.97,0.12,41.95
11,-0.14,1.01,0.08,42.66
11,-0.09,1.01,0.08,44.85
11,0.05,1.03,0.09,44.85
11,0.06,0.99,0.14,41.37
11,0.06,0.99,0.17,44.31
11,-0.05,0.97,0.17,44.31
11,-0.14,0.98,0.13,46.75
11,-0.14,0.98,0.09,41.41
11,-0.10,1.00,0.09,41.41
11,0.01,1.04,0.09,44.77
11,0.01,1.06,0.12,46.86
11,0.06,1.00,0.12,43.56
11,-0.01,0.97,0.17,43.56
11,-0.01,0.99,0.13,43.84
11,-0.12,0.99,0.15,40.45
11,-0.13,0.99,0.08,40.45
11,-0.14,1.04,0.08,39.91
11,-0.02,1.04,0.11,47.29
11,0.07,1.02,0.11,47.29
11,0.02,0.97,0.16,44.12
11,0.02,1.00,0.15,42.49
11,-0.12,1.00,0.15,43.01
11,-0.14,0.98,0.10,39.87
11,-0.14,1.03,0.08,42.50
11,-0.05,1.03,0.08,39.59
11,0.06,1.03,0.10,39.59
11,0.04,0.98,0.16,38.33
11,0.04,0.98,0.16,40.22
11,-0.09,0.99,0.16,40.22
11,-0.15,0.97,0.12,47.15
11,-0.15,0.97,0.07,40.76
11,-0.07,1.02,0.07,41.33
11,0.05,1.04,0.10,41.33
11,0.05,1.05,0.14,40.72
11,0.05,0.99,0.14,46.81
11,-0.06,0.98,0.17,46.81
11,-0.06,0.98,0.12,46.10
11,-0.14,0.98,0.08,41.31
11,-0.10,1.01,0.08,41.31
11,-0.11,1.04,0.08,46.35
11,0.01,1.04,0.13,43.40
11,0.06,1.00,0.13,43.40
11,-0.03,0.98,0.17,40.73
11,-0.03,0.98,0.13,45.78
11,-0.13,0.98,0.13,45.75
11,-0.12,0.99,0.10,41.83
11,-0.12,1.04,0.09,44.28
11,-0.01,1.04,0.09,42.24
11,0.07,1.01,0.11,42.24
11,0.06,0.98,0.17,44.57
11,0.00,0.98,0.15,40.51
11,-0.12,0.99,0.15,40.51
11,-0.14,0.98,0.10,45.92
11,-0.14,0.97,0.07,42.04
11,-0.04,1.03,0.07,42.17
11,0.07,1.03,0.10,38.25
11,0.07,0.97,0.16,43.61
11,0.03,0.97,0.16,44.89
11,-0.10,0.99,0.15,44.89
11,-0.07,0.98,0.11,43.74
11,-0.14,0.98,0.08,38.88
11,-0.07,1.03,0.08,38.88
11,0.06,1.03,0.10,43.35
11,0.06,1.03,0.14,43.22
11,0.06,0.98,0.14,43.22
11,-0.07,0.99,0.16,40.62
11,-0.07,0.98,0.13,41.62
11,-0.14,0.98,0.13,41.75
11,-0.10,1.02,0.07,41.75
11,-0.10,1.04,0.09,41.67
11,0.03,1.04,0.07,39.51
11,0.07,1.01,0.13,39.51
11,0.09,0.98,0.18,39.16
11,-0.04,0.98,0.13,40.50
11,-0.13,0.98,0.13,40.50
11,-0.12,0.99,0.08,38.70
11,-0.12,0.97,0.09,43.21
11,-0.00,1.03,0.09,43.61
11,0.07,1.01,0.12,44.40
11,0.07,0.97,0.17,42.51
11,-0.01,0.97,0.17,46.27
11,-0.12,0.99,0.15,46.27
11,-0.07,0.98,0.09,47.63
11,-0.13,0.98,0.08,38.28
11,-0.03,1.04,0.08,38.28
11,0.07,1.01,0.12,41.69
11,0.07,1.01,0.16,43.80
11,0.03,0.98,0.16,43.48
11,-0.11,0.99,0.16,38.78
11,-0.11,0.97,0.11,44.07
11,-0.15,0.97,0.11,40.05
11,-0.07,1.03,0.07,40.05
11,-0.07,1.02,0.10,39.76
11,0.05,1.02,0.09,42.75
11,0.05,0.97,0.15,42.75
11,0.05,0.98,0.16,38.92
11,-0.07,0.98,0.12,45.35
11,-0.14,0.97,0.12,45.35
11,-0.09,1.01,0.08,41.37
11,-0.09,1.04,0.09,41.47
11,0.04,1.04,0.09,41.62
11,0.05,0.99,0.13,40.84
11,0.05,0.98,0.17,47.22
11,-0.05,0.98,0.17,45.24
11,-0.13,0.98,0.13,45.24
11,-0.17,1.00,0.10,40.60
11,-0.11,1.00,0.08,45.83
11,0.01,1.04,0.08,45.83
11,0.07,1.00,0.13,40.13
11,0.07,1.00,0.17,47.48
11,-0.02,0.97,0.17,47.33
11,-0.13,0.99,0.14,44.98
11,-0.13,0.98,0.09,48.23
11,-0.13,0.98,0.09,41.01
11,-0.02,1.04,0.07,41.01
11,-0.05,1.03,0.11,46.06
11,0.07,1.03,0.10,40.19
11,0.03,0.98,0.16,40.19
11,-0.10,0.98,0.14,43.31
11,-0.10,0.98,0.09,42.26
11,-0.14,0.98,0.09,42.26
11,-0.05,1.03,0.08,47.46
11,-0.05,1.03,0.10,40.65
11,0.06,1.03,0.10,40.01
11,0.04,0.98,0.15,42.36
11,0.04,1.00,0.17,47.44
11,-0.08,1.00,0.18,39.11
11,-0.14,0.97,0.12,39.11
11,-0.15,1.01,0.08,43.34
11,-0.08,1.01,0.10,42.36
11,0.05,1.03,0.10,42.36
11,0.06,0.99,0.14,41.33
11,0.06,0.98,0.17,39.76
11,-0.05,0.98,0.17,39.44
11,-0.15,0.98,0.13,44.92
11,-0.15,1.00,0.08,47.82
11,-0.11,1.00,0.08,41.30
11,0.01,1.03,0.08,41.30
11,0.00,1.00,0.13,44.20
11,0.07,1.00,0.17,46.78
11,-0.02,0.98,0.17,46.78
11,-0.13,0.98,0.13,41.88
11,-0.13,0.98,0.09,45.57
11,-0.13,0.99,0.09,45.51
11,-0.02,1.04,0.08,46.29
11,-0.02,1.01,0.11,39.05
11,0.07,1.01,0.11,43.16
11,0.01,0.97,0.18,43.16
11,0.01,0.99,0.16,43.74
11,-0.11,0.99,0.17,44.83
11,-0.14,0.99,0.11,44.83
11,-0.17,1.03,0.08,40.65
11,-0.05,1.03,0.11,46.14
11,0.06,1.02,0.11,46.14
11,0.05,0.98,0.16,41.94
11,0.05,0.98,0.16,40.80
11,-0.09,0.98,0.16,41.01
11,-0.14,0.98,0.11,37.09
11,-0.14,1.02,0.08,43.34
11,-0.07,1.02,0.08,42.48
11,0.04,1.02,0.10,42.48
11,0.06,0.99,0.15,36.16
11,0.06,0.99,0.16,43.51
11,-0.05,0.98,0.16,43.51
11,-0.14,0.98,0.12,45.79
11,-0.14,0.98,0.09,45.14
11,-0.10,1.00,0.09,44.78
11,0.02,1.04,0.08,42.43
11,0.02,1.00,0.13,42.61
11,0.06,1.00,0.13,39.22
11,-0.03,0.98,0.16,39.22
11,-0.01,0.99,0.12,40.57
11,-0.13,0.99,0.09,39.26
11,-0.13,1.00,0.09,39.26
11,-0.01,1.04,0.08,41.77
11,-0.01,1.04,0.12,40.71
11,0.07,1.01,0.12,40.71
11,-0.01,0.98,0.16,39.71
11,-0.01,0.98,0.15,43.60
11,-0.11,0.98,0.15,46.24
11,-0.13,0.98,0.10,46.24
11,-0.13,1.03,0.07,43.18
11,-0.04,1.03,0.11,39.37
11,0.06,1.02,0.11,39.37
11,0.03,0.98,0.16,41.28
11,0.03,0.98,0.15,42.22
11,-0.09,0.99,0.15,42.22
11,-0.14,0.98,0.11,45.29
11,-0.14,0.96,0.07,40.58
11,-0.07,1.02,0.07,40.01
11,0.04,1.03,0.09,44.71
11,0.04,0.98,0.15,44.55
11,0.05,0.98,0.15,42.70
11,-0.07,0.98,0.17,42.70
11,-0.08,0.98,0.12,38.86
11,-0.14,0.98,0.08,48.46
11,-0.09,1.01,0.08,48.46
11,0.03,1.04,0.09,46.82
11,0.03,1.04,0.13,43.79
11,0.06,1.00,0.13,43.75
11,-0.04,0.97,0.17,46.10
11,-0.04,0.98,0.13,42.62
11,-0.13,0.98,0.13,45.28
11,-0.12,1.00,0.10,45.28
11,-0.12,1.03,0.08,43.50
11,-0.01,1.03,0.12,43.35
11,0.07,1.01,0.12,43.35
11,-0.00,0.98,0.17,46.44
11,-0.00,0.98,0.14,44.75
11,-0.12,0.99,0.14,44.75
11,-0.13,0.98,0.10,43.50
11,-0.13,0.97,0.09,45.65
12,0.05,1.02,0.10,42.62
12,0.05,1.04,0.14,43.35
12,0.05,0.98,0.14,44.01
12,-0.07,0.99,0.18,44.01
12,-0.07,0.97,0.11,39.22
12,-0.14,0.97,0.08,37.86
12,-0.09,1.02,0.08,37.86
12,-0.10,1.03,0.09,41.80
12,0.03,1.03,0.14,42.54
12,0.06,1.00,0.14,42.54
12,-0.04,0.98,0.17,40.87
12,-0.04,0.98,0.12,43.77
12,-0.14,0.98,0.12,43.28
12,-0.11,1.00,0.08,39.36
12,-0.11,1.04,0.09,45.71
12,0.01,1.04,0.09,40.69
12,0.07,1.00,0.12,40.69
12,0.11,0.97,0.17,46.31
12,-0.02,0.97,0.13,44.07
12,-0.12,1.00,0.13,44.07
12,-0.12,0.99,0.10,39.15
12,-0.12,0.99,0.08,39.72
12,-0.02,1.04,0.08,39.65
12,0.06,1.02,0.12,45.92
12,0.06,0.98,0.17,38.64
12,0.02,0.98,0.17,42.88
12,-0.10,0.99,0.14,42.88
12,-0.07,0.98,0.10,39.57
12,-0.14,0.98,0.08,43.52
12,-0.05,1.04,0.08,43.52
12,0.06,1.03,0.10,44.37
12,0.06,1.03,0.14,41.15
12,0.04,0.98,0.14,41.15
12,-0.08,0.98,0.15,43.45
12,-0.08,0.98,0.12,44.43
12,-0.14,0.98,0.12,42.60
12,-0.08,1.01,0.08,42.60
12,-0.08,1.03,0.10,41.15
12,0.04,1.03,0.09,40.76
12,0.06,0.99,0.15,40.76
12,0.02,0.98,0.17,41.66
12,-0.05,0.98,0.12,38.85
12,-0.14,0.98,0.12,38.85
12,-0.10,1.01,0.09,42.16
12,-0.10,1.03,0.08,47.37
12,0.01,1.03,0.08,47.24
12,0.06,1.00,0.13,44.89
12,0.06,0.97,0.17,46.77
12,-0.02,0.97,0.17,42.80
12,-0.13,0.99,0.14,42.80
12,-0.19,0.99,0.09,39.90
12,-0.12,0.99,0.08,43.60
12,-0.01,1.03,0.08,43.60
12,0.06,1.01,0.12,41.64
12,0.06,1.01,0.17,41.88
12,0.00,0.98,0.17,41.79
12,-0.11,0.99,0.15,43.36
12,-0.11,0.98,0.10,38.67
12,-0.13,0.98,0.10,40.20
12,-0.04,1.03,0.08,40.20
12,-0.04,1.02,0.10,39.75
12,0.05,1.02,0.10,44.45
12,0.04,0.98,0.16,44.45
12,0.04,0.99,0.15,45.48
12,-0.09,0.99,0.11,38.95
12,-0.15,0.98,0.11,38.95
12,-0.07,1.02,0.08,43.10
12,-0.07,1.03,0.09,44.71
12,0.05,1.03,0.09,45.22
12,0.06,0.99,0.15,45.22
12,0.06,0.99,0.17,41.47
12,-0.06,0.99,0.17,42.52
12,-0.14,0.97,0.11,42.52
12,-0.16,1.01,0.08,42.06
12,-0.10,1.01,0.09,41.47
12,0.03,1.03,0.09,41.47
12,0.07,1.00,0.13,39.71
12,0.07,1.00,0.17,42.08
12,-0.03,0.97,0.17,41.82
12,-0.13,0.99,0.12,41.03
12,-0.13,0.98,0.08,42.13
12,-0.12,0.98,0.08,38.02
12,-0.02,1.03,0.08,38.02
12,-0.06,1.01,0.12,40.50
12,0.07,1.01,0.10,40.46
12,-0.00,0.98,0.16,40.46
12,-0.12,0.99,0.14,42.73
12,-0.12,0.99,0.10,38.19
12,-0.13,0.98,0.10,38.19
12,-0.05,1.04,0.08,40.71
12,-0.05,1.02,0.11,40.55
12,0.05,1.02,0.11,40.57
12,0.03,0.97,0.16,36.65
12,0.03,0.99,0.14,44.83
12,-0.08,0.99,0.17,42.63
12,-0.14,0.98,0.11,42.63
12,-0.13,1.02,0.08,44.70
12,-0.07,1.02,0.10,40.17
12,0.05,1.02,0.10,40.17
12,0.04,0.98,0.17,46.11
12,0.04,0.99,0.16,44.02
12,-0.06,0.99,0.16,44.31
12,-0.15,0.98,0.12,39.61
12,-0.15,1.02,0.08,46.84
12,-0.11,1.02,0.08,42.68
12,0.03,1.03,0.09,42.68
12,0.06,0.99,0.14,42.78
12,0.06,0.99,0.17,40.13
12,-0.04,0.99,0.17,40.13
12,-0.13,0.98,0.12,38.30
12,-0.13,0.98,0.08,39.72
12,-0.12,1.00,0.08,39.40
12,-0.01,1.03,0.09,42.53
12,-0.01,1.00,0.12,44.87
12,0.07,1.00,0.12,42.94
12,-0.00,0.97,0.17,42.94
12,-0.00,0.98,0.15,39.06
12,-0.12,0.98,0.16,41.29
12,-0.13,0.99,0.10,41.29
12,-0.16,1.03,0.07,41.16
12,-0.03,1.03,0.12,38.68
12,0.06,1.02,0.12,38.68
12,0.02,0.97,0.16,44.84
12,0.02,0.99,0.15,43.62
12,-0.10,0.99,0.15,43.59
12,-0.14,0.98,0.10,41.24
12,-0.14,1.03,0.08,48.08
12,-0.06,1.03,0.08,41.68
12,0.06,1.02,0.11,41.68
12,0.05,0.98,0.15,41.41
12,0.05,0.98,0.16,47.42
12,-0.07,0.98,0.16,47.42
12,-0.14,0.98,0.11,46.38
12,-0.14,0.98,0.08,45.29
12,-0.10,1.02,0.08,45.06
12,0.03,1.03,0.09,43.49
12,0.03,0.99,0.15,41.41
12,0.06,0.99,0.15,46.98
12,-0.04,0.99,0.16,46.98
12,-0.01,0.99,0.13,40.87
12,-0.14,0.99,0.15,40.27
12,-0.10,1.00,0.08,40.27
12,0.01,1.03,0.09,40.87
12,0.01,1.03,0.13,43.45
12,0.07,1.00,0.13,43.45
12,-0.01,0.98,0.17,44.73
12,-0.01,0.98,0.14,43.40
12,-0.13,0.98,0.14,43.25
12,-0.12,0.99,0.09,48.73
12,-0.12,1.04,0.08,38.85
12,-0.02,1.04,0.11,47.68
12,0.06,1.01,0.11,47.68
12,0.02,0.97,0.16,44.05
12,0.02,0.97,0.14,43.96
12,-0.10,1.00,0.14,43.96
12,-0.14,0.99,0.11,40.72
12,-0.14,0.96,0.08,41.92
12,-0.06,1.02,0.08,42.07
12,0.06,1.02,0.09,46.77
12,0.06,0.98,0.16,44.18
12,0.04,0.98,0.16,44.06
12,-0.08,0.99,0.16,44.06
12,-0.08,0.98,0.12,43.79
12,-0.14,0.98,0.08,41.45
12,-0.08,1.02,0.08,41.45
12,0.04,1.03,0.09,41.92
12,0.04,1.03,0.14,41.72
12,0.06,0.99,0.14,41.83
12,-0.05,0.98,0.17,41.83
12,-0.05,0.98,0.12,38.23
12,-0.14,0.98,0.12,42.95
12,-0.10,1.01,0.09,42.95
12,-0.10,1.04,0.09,39.03
12,0.01,1.04,0.07,42.21
12,0.06,1.00,0.13,42.21
12,0.11,0.98,0.17,45.09
12,-0.02,0.98,0.13,41.29
12,-0.12,0.99,0.13,41.29
12,-0.13,0.99,0.09,42.01
12,-0.13,0.97,0.08,39.58
12,-0.01,1.03,0.08,39.84
12,0.06,1.01,0.12,48.46
12,0.06,0.97,0.17,42.52
12,0.00,0.97,0.17,40.97
12,-0.11,0.99,0.14,40.97
12,-0.07,0.98,0.11,46.40
12,-0.14,0.98,0.09,41.93
12,-0.04,1.03,0.09,41.93
12,0.05,1.02,0.11,45.02
12,0.05,1.02,0.16,41.85
12,0.04,0.98,0.16,41.56
12,-0.08,0.99,0.15,40.78
12,-0.08,0.98,0.11,43.73
12,-0.14,0.98,0.11,42.11
12,-0.08,1.03,0.07,42.11
12,-0.09,1.02,0.10,45.14
12,0.03,1.02,0.08,43.59
12,0.05,0.99,0.14,43.59
12,-0.05,0.99,0.16,39.31
12,-0.05,0.99,0.12,43.33
12,-0.14,0.98,0.12,43.33
12,-0.10,1.01,0.08,43.86
12,-0.10,1.03,0.09,42.87
12,0.02,1.03,0.09,42.37
12,0.06,1.00,0.13,43.93
12,0.06,0.98,0.17,45.14
12,-0.03,0.98,0.17,42.13
12,-0.13,0.98,0.13,42.13
12,-0.18,1.00,0.09,44.83
12,-0.12,1.00,0.08,46.08
12,-0.01,1.04,0.08,46.08
12,0.07,1.01,0.12,47.16
12,0.07,1.04,0.16,48.62
12,-0.00,0.98,0.16,49.14
12,-0.11,0.99,0.13,43.66
12,-0.11,0.99,0.10,42.14
12,-0.13,0.99,0.10,40.70
12,-0.03,1.03,0.08,40.70
12,-0.00,1.02,0.11,43.96
12,0.06,1.02,0.10,41.88
12,0.02,0.97,0.17,41.88
12,-0.08,0.99,0.14,43.29
12,-0.08,0.99,0.09,47.26
12,-0.14,0.99,0.09,47.60
12,-0.07,1.02,0.08,40.55
12,-0.07,1.03,0.10,40.53
12,0.04,1.03,0.10,37.90
12,0.05,0.99,0.15,37.90
12,0.05,0.99,0.16,46.10
12,-0.06,0.99,0.18,42.23
12,-0.14,0.98,0.11,42.23
12,-0.10,1.01,0.09,40.63
12,-0.10,1.01,0.09,44.71
13,0.05,1.00,0.13,44.51
13,0.05,1.00,0.17,37.92
13,-0.01,0.98,0.17,38.05
13,-0.12,0.99,0.14,47.45
13,-0.12,0.99,0.09,40.15
13,-0.14,0.99,0.09,40.17
13,-0.03,1.03,0.09,40.17
13,-0.03,1.02,0.11,43.12
13,0.06,1.02,0.10,37.22
13,0.02,0.99,0.16,37.22
13,-0.09,0.99,0.15,39.27
13,-0.09,0.99,0.11,42.36
13,-0.13,0.98,0.11,42.36
13,-0.05,1.03,0.08,40.97
13,-0.05,1.02,0.10,39.00
13,0.05,1.02,0.10,38.98
13,0.04,0.99,0.16,46.81
13,0.04,0.99,0.15,39.77
13,-0.07,0.99,0.15,39.70
13,-0.14,0.98,0.11,39.70
13,-0.14,1.01,0.09,42.49
13,-0.08,1.01,0.10,41.30
13,0.04,1.03,0.10,41.30
13,0.06,0.99,0.14,46.27
13,0.06,0.99,0.16,39.67
13,-0.04,0.99,0.16,39.65
13,-0.13,1.00,0.12,43.56
13,-0.13,1.01,0.09,41.68
13,-0.11,1.01,0.09,43.96
13,0.01,1.03,0.08,43.96
13,0.01,1.01,0.13,42.55
13,0.07,1.01,0.17,43.14
13,-0.01,0.98,0.17,43.14
13,-0.12,0.99,0.13,48.97
13,-0.12,0.99,0.10,44.06
13,-0.12,1.00,0.10,44.06
13,-0.02,1.03,0.09,44.83
13,-0.02,1.02,0.11,42.15
13,0.07,1.02,0.11,45.73
13,0.01,0.97,0.15,45.73
13,0.01,0.99,0.14,43.91
13,-0.10,0.99,0.17,42.97
13,-0.13,0.98,0.11,42.97
13,-0.18,1.02,0.08,42.25
13,-0.05,1.02,0.11,42.76
13,0.06,1.02,0.11,42.76
13,0.03,0.98,0.17,43.26
13,0.03,1.00,0.15,43.51
13,-0.09,1.00,0.15,43.56
13,-0.14,0.98,0.11,41.21
13,-0.14,1.02,0.08,41.93
13,-0.08,1.02,0.08,41.33
13,0.04,1.02,0.10,41.33
13,0.04,0.99,0.14,45.66
13,0.04,0.99,0.16,45.32
13,-0.04,0.98,0.16,45.32
13,-0.13,0.99,0.12,41.77
13,-0.13,0.99,0.08,44.04
13,-0.10,1.01,0.08,43.81
13,0.01,1.03,0.09,46.16
13,0.01,1.00,0.13,43.26
13,0.06,1.00,0.13,40.88
13,-0.03,0.98,0.16,40.88
13,-0.03,0.98,0.12,43.81
13,-0.13,0.98,0.09,39.75
13,-0.12,0.99,0.09,39.75
13,-0.01,1.04,0.08,42.26
13,-0.01,1.04,0.11,39.53
13,0.07,1.01,0.11,39.53
13,0.00,0.99,0.17,39.97
13,0.00,0.99,0.14,39.66
13,-0.10,0.99,0.14,39.43
13,-0.14,0.98,0.09,40.21
13,-0.14,1.03,0.08,37.54
13,-0.04,1.03,0.08,38.90
13,0.05,1.02,0.11,38.90
13,0.03,0.98,0.16,40.22
13,0.03,0.98,0.15,43.81
13,-0.09,0.99,0.15,43.81
13,-0.14,0.99,0.11,41.24
13,-0.14,0.95,0.08,49.84
13,-0.07,1.02,0.08,49.74
13,0.04,1.03,0.09,46.61
13,0.04,0.99,0.14,43.18
13,0.05,0.99,0.14,46.58
13,-0.06,0.99,0.15,46.58
13,-0.01,0.98,0.12,40.69
13,-0.14,0.98,0.09,41.16
13,-0.10,1.00,0.09,41.16
13,0.02,1.04,0.09,40.15
13,0.02,1.04,0.13,43.93
13,0.06,1.00,0.13,43.93
13,-0.03,0.99,0.16,41.00
13,-0.03,0.98,0.14,40.59
13,-0.13,0.98,0.14,41.95
13,-0.11,0.99,0.08,41.95
13,-0.11,1.02,0.08,38.62
13,-0.00,1.02,0.06,43.50
13,0.06,1.01,0.13,43.50
13,0.00,0.98,0.17,43.64
13,0.00,0.98,0.13,45.89
13,-0.11,0.99,0.13,45.89
13,-0.14,0.99,0.09,39.84
13,-0.14,0.97,0.08,43.75
13,-0.04,1.04,0.08,43.16
13,0.06,1.01,0.11,43.95
13,0.06,0.98,0.16,43.90
13,0.03,0.98,0.16,43.75
13,-0.09,0.99,0.14,43.75
13,-0.07,0.98,0.11,39.22
13,-0.14,0.98,0.08,42.58
13,-0.07,1.02,0.08,42.58
13,0.04,1.02,0.10,37.67
13,0.04,1.02,0.15,40.92
13,0.05,0.99,0.15,40.74
13,-0.06,0.99,0.15,40.74
13,-0.06,0.97,0.12,41.22
13,-0.14,0.97,0.12,37.73
13,-0.09,1.01,0.08,37.73
13,-0.09,1.02,0.09,41.28
13,0.02,1.02,0.08,44.18
13,0.07,1.00,0.14,44.18
13,-0.03,0.99,0.16,41.60
13,-0.03,0.99,0.12,43.90
13,-0.14,0.99,0.12,43.90
13,-0.11,1.00,0.09,41.98
13,-0.11,1.03,0.09,40.50
13,-0.00,1.03,0.09,40.10
13,0.06,1.00,0.13,40.10
13,0.06,0.98,0.17,41.90
13,-0.01,0.98,0.17,41.63
13,-0.11,0.99,0.14,41.63
13,-0.12,0.99,0.10,37.51
13,-0.12,0.99,0.08,43.88
13,-0.03,1.03,0.08,43.88
13,0.06,1.02,0.12,43.89
13,0.06,1.05,0.17,43.13
13,0.02,0.98,0.17,43.75
13,-0.10,0.99,0.14,42.97
13,-0.10,0.98,0.11,41.91
13,-0.14,0.98,0.11,38.52
13,-0.06,1.02,0.09,38.52
13,-0.02,1.03,0.12,40.46
13,0.04,1.03,0.09,41.93
13,0.04,0.98,0.16,41.93
13,-0.07,0.99,0.16,45.62
13,-0.07,0.99,0.11,40.49
13,-0.14,0.99,0.11,40.49
13,-0.09,1.01,0.08,42.57
13,-0.09,1.03,0.10,40.57
13,0.03,1.03,0.10,40.00
13,0.06,0.98,0.15,47.05
13,0.06,0.99,0.17,42.00
13,-0.04,0.99,0.18,43.94
13,-0.14,0.98,0.12,43.94
13,-0.16,1.00,0.09,41.97
13,-0.10,1.00,0.09,42.90
13,0.00,1.03,0.09,42.90
13,0.06,1.00,0.13,43.04
13,0.06,0.98,0.16,40.68
13,-0.02,0.98,0.16,40.77
13,-0.12,0.99,0.13,39.20
13,-0.12,0.99,0.10,44.28
13,-0.12,0.99,0.10,39.79
13,-0.02,1.03,0.08,39.79
13,-0.06,1.02,0.11,41.33
13,0.06,1.02,0.11,43.77
13,0.01,0.98,0.17,43.77
13,-0.10,0.99,0.14,44.50
13,-0.10,0.99,0.10,41.38
13,-0.14,0.99,0.10,40.94
13,-0.04,1.03,0.08,44.86
13,-0.04,1.02,0.11,43.11
13,0.05,1.02,0.11,40.91
13,0.04,0.98,0.15,40.91
13,0.04,0.99,0.15,41.61
13,-0.08,0.99,0.17,45.58
13,-0.13,0.99,0.11,45.58
13,-0.15,1.01,0.09,46.03
13,-0.08,1.01,0.10,44.74
13,0.03,1.02,0.10,44.74
13,0.05,0.99,0.15,46.10
13,0.05,0.98,0.15,41.65
13,-0.05,0.98,0.15,42.18
13,-0.14,0.98,0.11,39.83
13,-0.14,1.01,0.09,40.58
13,-0.10,1.01,0.09,42.93
13,0.01,1.03,0.09,42.93
13,0.06,1.00,0.13,41.30
13,0.06,1.00,0.17,40.97
13,-0.02,0.98,0.17,40.97
13,-0.12,1.00,0.13,44.13
13,-0.12,1.00,0.08,41.09
13,-0.12,0.99,0.08,40.84
13,-0.01,1.03,0.09,36.14
13,-0.01,1.01,0.11,35.91
13,0.06,1.01,0.11,42.21
13,0.00,0.99,0.16,42.21
13,0.02,0.99,0.14,40.05
13,-0.11,0.99,0.16,39.44
13,-0.13,0.99,0.09,39.44
13,-0.04,1.03,0.08,44.17
13,-0.04,1.03,0.11,37.30
13,0.06,1.02,0.11,37.30
13,0.02,0.99,0.16,36.31
13,0.02,0.99,0.15,42.32
13,-0.09,0.99,0.15,42.72
13,-0.13,0.98,0.11,43.51
13,-0.13,1.02,0.09,43.96
13,-0.07,1.02,0.10,43.94
13,0.04,1.02,0.10,43.94
13,0.04,0.99,0.15,43.39
13,0.04,0.99,0.16,39.94
13,-0.06,0.99,0.16,39.94
13,-0.13,0.98,0.11,38.94
13,-0.13,0.94,0.08,42.23
13,-0.09,1.00,0.08,41.94
13,0.02,1.02,0.09,41.15
13,0.02,1.00,0.14,45.31
13,0.06,1.00,0.14,40.67
13,-0.03,0.99,0.16,40.67
13,-0.01,0.98,0.13,43.03
13,-0.13,0.98,0.16,44.25
13,-0.12,1.00,0.09,44.25
13,-0.01,1.02,0.09,45.11
13,-0.01,1.02,0.12,45.18
13,0.06,1.01,0.12,44.69
13,-0.01,0.97,0.17,43.13
13,-0.01,0.99,0.14,43.12
13,-0.11,0.99,0.14,42.05
13,-0.13,0.99,0.10,42.05
13,-0.13,1.03,0.09,43.54
13,-0.03,1.03,0.11,41.40
14,0.05,0.99,0.16,42.41
14,0.05,0.99,0.16,43.00
14,-0.07,0.99,0.16,43.00
14,-0.14,0.99,0.11,40.74
14,-0.14,0.95,0.08,44.67
14,-0.10,1.01,0.08,44.91
14,0.02,1.02,0.10,46.47
14,0.02,0.99,0.14,40.05
14,0.05,0.99,0.14,39.06
14,-0.03,0.99,0.16,39.06
14,-0.00,0.99,0.12,39.00
14,-0.13,0.99,0.08,41.94
14,-0.11,1.00,0.08,41.94
14,-0.01,1.02,0.09,42.55
14,-0.01,1.02,0.13,45.57
14,0.06,1.00,0.13,45.89
14,-0.01,0.98,0.15,43.54
14,-0.01,0.99,0.14,41.80
14,-0.12,0.99,0.14,45.61
14,-0.13,0.99,0.10,45.61
14,-0.15,1.03,0.09,42.85
14,-0.03,1.03,0.11,46.18
14,0.06,1.01,0.11,46.18
14,0.01,0.98,0.16,43.69
14,0.01,0.98,0.14,44.09
14,-0.09,0.99,0.14,44.09
14,-0.13,0.98,0.11,45.03
14,-0.13,0.96,0.09,42.56
14,-0.06,1.03,0.09,42.55
14,0.05,1.02,0.10,40.98
14,0.05,0.98,0.15,41.58
14,0.05,0.98,0.15,42.89
14,-0.08,0.99,0.16,42.89
14,-0.07,0.98,0.11,44.31
14,-0.13,0.98,0.08,44.99
14,-0.09,1.02,0.08,44.99
14,0.02,1.03,0.10,42.70
14,0.02,1.06,0.15,42.13
14,0.05,0.99,0.15,41.77
14,-0.04,0.98,0.16,44.12
14,-0.04,0.98,0.13,41.10
14,-0.14,0.98,0.13,38.06
14,-0.11,1.01,0.09,38.06
14,-0.12,1.03,0.09,46.74
14,0.00,1.03,0.07,43.04
14,0.06,1.01,0.13,43.04
14,-0.01,0.97,0.16,38.90
14,-0.01,0.97,0.13,41.11
14,-0.12,0.98,0.13,41.37
14,-0.12,1.00,0.08,42.15
14,-0.12,1.03,0.08,45.23
14,-0.02,1.03,0.08,44.23
14,0.05,1.01,0.12,44.23
14,0.05,0.98,0.16,42.42
14,0.01,0.98,0.14,39.44
14,-0.11,0.99,0.14,39.44
14,-0.07,0.99,0.10,39.53
14,-0.13,0.99,0.08,40.82
14,-0.04,1.02,0.08,40.82
14,0.05,1.02,0.10,45.38
14,0.05,1.06,0.16,43.39
14,0.03,0.99,0.16,43.44
14,-0.08,0.99,0.15,41.09
14,-0.08,0.98,0.11,40.36
14,-0.14,0.98,0.11,47.02
14,-0.08,1.01,0.09,47.02
14,-0.09,1.03,0.11,47.58
14,0.04,1.03,0.07,40.36
14,0.05,0.99,0.13,40.36
14,-0.05,0.98,0.16,44.44
14,-0.05,0.98,0.12,39.15
14,-0.13,0.99,0.12,39.14
14,-0.10,1.01,0.09,48.54
14,-0.10,1.02,0.09,45.11
14,0.02,1.02,0.09,42.62
14,0.06,1.00,0.13,42.62
14,0.06,0.99,0.16,43.53
14,-0.02,0.99,0.19,42.69
14,-0.12,0.99,0.12,42.69
14,-0.12,1.00,0.09,43.62
14,-0.12,1.00,0.09,43.09
14,-0.02,1.03,0.09,43.09
14,0.07,1.01,0.11,42.89
14,0.07,1.04,0.16,42.29
14,0.01,0.98,0.16,42.33
14,-0.10,0.98,0.15,41.55
14,-0.10,0.98,0.09,41.55
14,-0.13,0.98,0.09,43.86
14,-0.04,1.03,0.08,43.86
14,-0.01,1.00,0.10,39.63
14,0.05,1.00,0.16,35.90
14,0.03,0.98,0.16,35.90
14,-0.08,0.99,0.15,42.39
14,-0.08,0.98,0.12,42.85
14,-0.14,0.98,0.12,42.77
14,-0.07,1.02,0.09,44.34
14,-0.07,1.02,0.11,39.17
14,0.04,1.02,0.11,41.23
14,0.04,1.00,0.16,41.23
14,0.01,0.99,0.15,40.93
14,-0.05,0.99,0.19,38.48
14,-0.13,0.98,0.12,38.48
14,-0.09,1.01,0.08,46.43
14,-0.09,1.01,0.10,40.20
14,0.02,1.03,0.10,40.24
14,0.06,0.99,0.14,37.89
14,0.06,0.98,0.16,42.86
14,-0.04,0.98,0.16,48.32
14,-0.13,0.98,0.12,48.32
14,-0.13,1.00,0.09,42.51
14,-0.11,1.00,0.09,43.10
14,-0.01,1.03,0.09,43.10
14,-0.00,1.00,0.13,46.06
14,0.06,1.00,0.15,45.18
14,0.00,0.98,0.15,45.18
14,-0.10,0.98,0.14,43.87
14,-0.10,0.99,0.09,40.74
14,-0.13,0.99,0.09,40.71
14,-0.04,1.03,0.08,46.19
14,-0.04,1.01,0.11,39.73
14,0.05,1.01,0.11,44.29
14,0.03,0.98,0.16,44.29
14,0.03,1.00,0.15,47.56
14,-0.09,1.00,0.16,42.93
14,-0.13,0.99,0.10,42.93
14,-0.06,1.02,0.08,40.83
14,-0.06,1.02,0.11,44.24
14,0.04,1.02,0.11,44.55
14,0.04,0.99,0.14,39.07
14,0.04,0.99,0.16,44.84
14,-0.06,0.99,0.16,43.50
14,-0.14,0.98,0.12,43.50
14,-0.14,1.01,0.09,43.74
14,-0.09,1.01,0.10,45.47
14,0.03,1.03,0.10,45.47
14,0.05,1.00,0.13,41.55
14,0.05,1.00,0.16,41.32
14,-0.03,0.99,0.16,41.32
14,-0.13,0.99,0.13,40.58
14,-0.13,1.00,0.09,39.71
14,-0.10,1.00,0.09,39.51
14,0.01,1.03,0.10,38.73
14,0.01,1.01,0.13,43.70
14,0.06,1.01,0.13,37.18
14,-0.01,0.97,0.16,37.18
14,-0.06,0.99,0.14,45.98
14,-0.12,0.99,0.16,44.82
14,-0.13,0.99,0.10,44.82
14,-0.02,1.03,0.08,44.77
14,-0.02,1.01,0.11,41.57
14,0.06,1.01,0.11,41.93
14,0.01,0.97,0.16,45.06
14,0.01,0.99,0.15,35.93
14,-0.10,0.99,0.15,42.09
14,-0.13,0.98,0.10,42.09
14,-0.18,1.02,0.09,42.80
14,-0.06,1.02,0.10,41.97
14,0.05,1.01,0.10,41.97
14,0.03,0.99,0.15,38.76
14,0.03,0.99,0.15,43.49
14,-0.07,0.99,0.15,43.13
14,-0.14,0.98,0.11,41.57
14,-0.14,0.94,0.08,41.25
14,-0.09,1.00,0.08,48.47
14,0.03,1.02,0.10,48.47
14,0.03,0.99,0.15,45.14
14,0.05,0.99,0.15,43.30
14,-0.04,0.99,0.15,43.30
14,-0.01,0.98,0.12,44.12
14,-0.13,0.98,0.09,44.14
14,-0.10,1.00,0.09,44.14
14,0.01,1.03,0.09,43.20
14,0.01,1.00,0.13,40.78
14,0.06,1.00,0.13,41.21
14,-0.01,0.99,0.17,44.35
14,-0.01,0.99,0.14,39.48
14,-0.12,0.99,0.14,43.53
14,-0.12,0.99,0.10,43.53
14,-0.09,1.02,0.10,42.05
14,-0.02,1.02,0.12,44.89
14,0.06,1.01,0.12,44.89
14,0.01,0.98,0.15,42.49
14,0.01,0.98,0.15,45.18
14,-0.11,0.99,0.15,44.85
14,-0.13,0.99,0.10,45.63
14,-0.13,1.03,0.08,40.88
14,-0.04,1.03,0.08,42.19
14,0.05,1.02,0.11,42.19
14,0.03,0.98,0.16,40.54
14,0.03,0.98,0.15,39.53
14,-0.07,0.99,0.15,39.53
14,-0.14,0.99,0.11,45.82
14,-0.14,0.99,0.09,40.51
14,-0.07,1.01,0.09,40.51
14,0.04,1.02,0.11,43.34
14,0.04,1.06,0.14,48.78
14,0.05,1.00,0.14,48.78
14,-0.05,0.99,0.15,44.08
14,-0.05,0.99,0.12,39.87
14,-0.14,0.99,0.08,46.69
14,-0.10,1.00,0.08,46.69
14,-0.11,1.03,0.10,41.62
14,0.01,1.03,0.13,41.21
14,0.05,1.00,0.13,41.21
14,-0.02,0.98,0.16,41.50
14,-0.02,0.99,0.13,41.55
14,-0.12,0.99,0.13,41.68
14,-0.12,1.00,0.09,44.81
14,-0.12,1.02,0.09,46.45
14,-0.01,1.02,0.09,49.53
14,0.06,1.01,0.12,49.53
14,0.01,0.98,0.16,42.89
14,0.01,0.98,0.15,47.40
14,-0.10,1.00,0.15,47.40
14,-0.13,0.98,0.10,44.11
14,-0.13,0.98,0.09,40.94
14,-0.04,1.02,0.09,41.18
14,0.05,1.01,0.12,40.40
14,0.05,1.04,0.15,43.95
14,0.03,0.98,0.15,41.66
14,-0.07,0.99,0.14,41.66
14,-0.07,0.99,0.10,38.98
14,-0.13,0.99,0.09,40.00
14,-0.07,1.01,0.09,40.00
14,0.04,1.02,0.11,40.55
14,0.04,1.02,0.15,41.11
14,0.05,0.99,0.15,41.11
14,-0.05,0.99,0.15,45.20
14,-0.05,0.98,0.12,41.83
14,-0.13,0.98,0.12,42.10
14,-0.09,1.02,0.09,40.53
14,-0.09,1.02,0.10,42.13
14,0.02,1.02,0.10,42.17
15,0.06,0.98,0.16,41.28
15,-0.00,0.98,0.14,43.95
15,-0.12,0.99,0.14,43.95
15,-0.12,0.99,0.10,41.62
15,-0.12,0.99,0.09,40.68
15,-0.03,1.03,0.09,40.68
15,0.06,1.01,0.11,41.88
15,0.06,1.04,0.16,42.96
15,0.02,0.98,0.16,43.63
15,-0.10,0.99,0.15,43.63
15,-0.10,0.98,0.10,37.73
15,-0.13,0.98,0.09,38.77
15,-0.07,1.01,0.09,38.77
15,-0.08,1.01,0.11,37.74
15,0.05,1.01,0.15,41.63
15,0.03,0.99,0.15,41.63
15,-0.06,0.99,0.15,37.60
15,-0.06,0.98,0.11,45.62
15,-0.13,0.98,0.11,45.75
15,-0.09,1.01,0.09,38.70
15,-0.09,1.02,0.10,41.62
15,0.02,1.02,0.10,46.50
15,0.04,0.99,0.15,46.50
15,0.02,0.99,0.16,44.94
15,-0.04,0.99,0.17,37.37
15,-0.13,0.99,0.11,37.37
15,-0.10,1.00,0.09,39.92
15,-0.10,1.00,0.09,39.08
15,0.00,1.02,0.09,38.45
15,0.05,1.00,0.12,40.80
15,0.05,0.98,0.15,46.29
15,-0.01,0.98,0.15,41.80
15,-0.11,0.99,0.13,41.80
15,-0.11,1.00,0.09,43.20
15,-0.12,1.00,0.09,49.31
15,-0.02,1.03,0.09,49.31
15,0.05,1.02,0.11,44.24
15,0.05,1.02,0.16,42.67
15,0.01,0.98,0.16,42.67
15,-0.09,0.99,0.14,40.33
15,-0.09,0.99,0.11,42.63
15,-0.12,0.99,0.11,42.50
15,-0.05,1.02,0.09,44.07
15,-0.05,1.02,0.11,40.14
15,0.04,1.02,0.11,42.06
15,0.04,1.00,0.15,42.06
15,0.05,0.99,0.14,40.55
15,-0.08,0.99,0.17,48.32
15,-0.13,0.97,0.11,48.32
15,-0.08,1.01,0.08,41.68
15,-0.08,1.02,0.10,45.55
15,0.03,1.02,0.10,45.61
15,0.05,0.98,0.14,41.69
15,0.05,0.99,0.15,46.75
15,-0.04,0.99,0.15,42.44
15,-0.13,0.98,0.11,42.44
15,-0.17,1.00,0.10,45.35
15,-0.10,1.00,0.09,41.11
15,-0.00,1.03,0.09,41.11
15,0.05,1.00,0.13,43.63
15,0.05,1.00,0.16,41.02
15,-0.02,0.99,0.16,41.02
15,-0.11,0.99,0.13,41.33
15,-0.11,1.00,0.10,39.24
15,-0.12,1.00,0.10,37.78
15,-0.02,1.03,0.09,37.78
15,-0.02,1.01,0.13,39.22
15,0.06,1.01,0.16,41.12
15,0.00,0.98,0.16,41.12
15,0.02,0.99,0.15,42.00
15,-0.10,0.99,0.10,42.63
15,-0.13,0.99,0.10,42.63
15,-0.04,1.02,0.09,43.35
15,-0.04,1.00,0.12,43.27
15,0.05,1.00,0.12,43.24
15,0.03,0.99,0.15,39.32
15,0.03,1.00,0.14,42.70
15,-0.08,1.00,0.14,43.84
15,-0.13,0.99,0.10,43.84
15,-0.14,1.01,0.08,44.56
15,-0.07,1.01,0.11,47.79
15,0.03,1.02,0.11,47.79
15,0.04,1.00,0.14,47.44
15,0.04,1.00,0.15,43.12
15,-0.06,0.99,0.15,43.51
15,-0.13,0.99,0.11,41.16
15,-0.13,0.94,0.08,42.77
15,-0.09,1.01,0.08,41.15
15,0.01,1.03,0.09,41.15
15,0.01,1.00,0.13,41.59
15,0.06,1.00,0.16,42.98
15,-0.03,0.99,0.16,42.98
15,-0.12,0.98,0.12,40.63
15,-0.12,0.98,0.09,42.94
15,-0.11,1.01,0.09,42.94
15,-0.01,1.01,0.09,42.83
15,-0.01,1.01,0.13,44.26
15,0.06,1.01,0.13,43.85
15,0.00,0.98,0.17,39.15
15,0.00,0.99,0.13,38.64
15,-0.11,0.99,0.13,39.82
15,-0.12,0.99,0.10,39.82
15,-0.11,1.02,0.10,41.40
15,-0.05,1.02,0.11,43.09
15,0.05,1.01,0.11,43.09
15,0.02,0.99,0.17,47.75
15,0.02,0.99,0.15,45.90
15,-0.09,0.99,0.15,45.52
15,-0.12,0.99,0.10,41.61
15,-0.12,1.02,0.09,43.61
15,-0.06,1.02,0.09,42.07
15,0.03,1.02,0.10,42.07
15,0.04,0.99,0.16,45.25
15,0.04,0.99,0.16,42.79
15,-0.05,0.99,0.16,42.79
15,-0.14,0.98,0.11,41.36
15,-0.14,0.98,0.10,46.55
15,-0.09,1.01,0.10,46.16
15,0.02,1.02,0.10,42.24
15,0.02,1.06,0.14,43.67
15,0.05,1.00,0.14,45.10
15,-0.04,0.98,0.15,45.10
15,-0.04,0.98,0.12,44.92
15,-0.12,0.98,0.09,41.91
15,-0.11,1.00,0.09,41.91
15,-0.06,1.02,0.10,41.60
15,-0.00,1.02,0.12,46.32
15,0.05,0.99,0.12,46.32
15,-0.01,0.98,0.16,46.95
15,-0.01,1.00,0.14,42.75
15,-0.11,1.00,0.14,42.75
15,-0.12,0.99,0.09,44.32
15,-0.12,1.01,0.09,43.57
15,-0.03,1.01,0.09,46.98
15,0.05,1.01,0.11,46.98
15,0.01,0.98,0.16,42.28
15,0.01,0.98,0.15,41.13
15,-0.09,0.99,0.15,41.13
15,-0.13,0.99,0.10,38.47
15,-0.13,0.99,0.09,40.68
15,-0.06,1.01,0.09,40.79
15,0.04,1.02,0.11,46.27
15,0.04,1.05,0.15,41.99
15,0.03,0.99,0.15,43.77
15,-0.06,0.99,0.14,43.77
15,-0.06,0.99,0.11,42.31
15,-0.12,0.99,0.08,42.65
15,-0.09,1.01,0.08,42.65
15,-0.11,1.02,0.10,44.44
15,0.02,1.02,0.14,46.26
15,0.05,1.00,0.14,46.26
15,-0.04,0.99,0.15,37.54
15,-0.04,0.99,0.12,45.94
15,-0.12,0.99,0.12,45.89
15,-0.10,1.00,0.09,40.41
15,-0.10,1.03,0.10,42.62
15,0.01,1.03,0.10,41.59
15,0.05,1.01,0.13,41.59
15,0.05,0.98,0.15,43.86
15,-0.01,0.98,0.14,42.93
15,-0.11,0.98,0.14,42.93
15,-0.11,1.00,0.09,43.57
15,-0.11,1.02,0.08,42.88
15,-0.02,1.02,0.08,42.25
15,0.05,1.00,0.12,39.90
15,0.05,0.98,0.16,41.42
15,0.01,0.98,0.16,44.90
15,-0.10,0.99,0.14,44.90
15,-0.07,0.98,0.11,44.62
15,-0.13,0.98,0.09,41.42
15,-0.05,1.01,0.09,41.42
15,0.04,1.02,0.10,37.60
15,0.04,1.02,0.15,38.72
15,0.03,0.99,0.15,38.37
15,-0.07,1.00,0.15,39.93
15,-0.07,0.98,0.11,40.57
15,-0.13,0.98,0.11,41.29
15,-0.08,1.02,0.08,41.29
15,-0.08,1.02,0.10,41.46
15,0.04,1.02,0.10,47.20
15,0.04,0.99,0.16,47.20
15,0.02,1.00,0.14,38.49
15,-0.04,1.00,0.13,42.43
15,-0.13,0.99,0.13,42.43
15,-0.10,1.01,0.09,39.54
15,-0.10,1.02,0.11,41.10
15,0.00,1.02,0.11,41.17
15,0.05,1.00,0.14,39.60
15,0.05,0.99,0.16,41.64
15,-0.02,0.99,0.16,43.57
15,-0.11,0.99,0.13,43.57
15,-0.12,0.99,0.10,42.19
15,-0.12,0.99,0.09,44.31
15,-0.02,1.02,0.09,44.31
15,0.05,1.01,0.13,43.68
15,0.05,1.01,0.16,42.88
15,0.00,0.99,0.16,42.82
15,-0.10,0.98,0.14,38.90
15,-0.10,1.00,0.11,43.00
15,-0.13,1.00,0.11,40.64
15,-0.04,1.02,0.09,40.64
15,-0.02,1.02,0.11,40.94
15,0.04,1.02,0.09,38.46
15,0.02,0.99,0.16,38.46
15,-0.08,0.99,0.15,41.82
15,-0.08,0.99,0.10,42.40
15,-0.12,0.98,0.10,42.40
15,-0.07,1.01,0.08,41.97
15,-0.07,1.02,0.10,44.49
15,0.03,1.02,0.10,44.32
15,0.04,0.99,0.14,42.76
15,0.04,0.99,0.15,43.53
15,-0.04,0.99,0.15,40.09
15,-0.13,1.00,0.11,40.09
15,-0.15,1.01,0.09,46.76
15,-0.09,1.01,0.10,41.27
15,0.01,1.02,0.10,41.27
15,0.05,1.00,0.13,39.83
15,0.05,0.99,0.15,42.05
15,-0.03,0.99,0.15,41.98
15,-0.11,0.98,0.12,42.76
15,-0.11,1.00,0.09,40.66
15,-0.11,1.00,0.09,40.49
15,-0.01,1.02,0.10,40.49
15,-0.01,1.01,0.13,43.09
15,0.05,1.01,0.16,46.33
15,0.01,0.99,0.16,46.33
15,-0.11,1.00,0.14,43.15
15,-0.11,1.00,0.10,41.66
15,-0.12,0.99,0.10,41.66
15,-0.03,1.02,0.09,44.01
15,-0.03,1.01,0.12,45.63
15,0.04,1.01,0.12,45.89
16,0.04,0.99,0.15,42.09
16,-0.06,0.99,0.15,47.57
16,-0.13,0.98,0.11,47.57
16,-0.16,1.01,0.09,40.72
16,-0.10,1.01,0.10,44.52
16,0.01,1.02,0.10,44.52
16,0.05,0.99,0.13,40.89
16,0.05,0.99,0.15,39.34
16,-0.04,0.99,0.15,39.39
16,-0.12,0.99,0.13,43.31
16,-0.12,1.00,0.09,44.12
16,-0.10,1.00,0.09,41.68
16,-0.02,1.02,0.10,41.68
16,-0.02,1.00,0.12,42.70
16,0.05,1.00,0.10,42.25
16,-0.01,0.98,0.16,42.25
16,-0.11,0.99,0.13,46.48
16,-0.11,0.99,0.10,42.64
16,-0.12,1.00,0.10,42.64
16,-0.04,1.02,0.10,44.83
16,-0.04,1.01,0.13,44.79
16,0.05,1.01,0.13,44.82
16,0.01,0.99,0.15,41.68
16,0.01,0.99,0.13,40.34
16,-0.10,0.99,0.13,41.79
16,-0.12,0.99,0.10,41.79
16,-0.12,1.03,0.09,42.76
16,-0.06,1.03,0.12,42.30
16,0.04,1.02,0.12,42.30
16,0.03,0.99,0.14,43.56
16,0.03,0.99,0.15,40.34
16,-0.07,0.99,0.15,40.57
16,-0.13,0.99,0.11,40.57
16,-0.13,1.01,0.09,43.69
16,-0.09,1.01,0.09,44.43
16,0.02,1.03,0.10,44.43
16,0.04,0.99,0.14,38.44
16,0.04,0.99,0.16,43.15
16,-0.03,0.99,0.16,43.15
16,-0.12,0.98,0.12,44.02
16,-0.12,0.98,0.09,41.19
16,-0.10,1.00,0.09,41.19
16,0.00,1.02,0.09,41.07
16,0.00,1.01,0.13,38.66
16,0.05,1.01,0.13,42.55
16,-0.02,0.98,0.15,42.55
16,-0.02,0.99,0.13,41.85
16,-0.10,0.99,0.16,43.32
16,-0.12,0.99,0.10,43.32
16,-0.09,1.02,0.08,45.06
16,-0.02,1.02,0.12,45.14
16,0.05,1.01,0.12,45.14
16,0.01,0.98,0.15,42.44
16,0.01,0.99,0.15,40.71
16,-0.10,0.99,0.15,41.04
16,-0.13,0.99,0.10,44.96
16,-0.13,1.01,0.08,47.83
16,-0.05,1.01,0.08,38.98
16,0.04,1.02,0.12,38.98
16,0.03,0.99,0.16,45.75
16,0.03,0.99,0.15,40.93
16,-0.06,0.99,0.15,40.93
16,-0.12,0.99,0.12,40.46
16,-0.12,0.99,0.09,40.58
16,-0.08,1.01,0.09,40.43
16,0.02,1.01,0.11,45.91
16,0.02,1.06,0.14,43.67
16,0.05,1.00,0.14,40.75
16,-0.05,0.98,0.15,40.75
16,-0.05,0.99,0.12,44.14
16,-0.13,0.99,0.09,42.29
16,-0.10,1.00,0.09,42.29
16,0.01,1.03,0.09,39.37
16,0.01,1.03,0.14,38.63
16,0.05,1.00,0.14,38.63
16,-0.02,0.99,0.16,39.77
16,-0.02,0.99,0.13,45.31
16,-0.12,0.99,0.13,44.86
16,-0.10,1.00,0.09,43.30
16,-0.10,1.02,0.09,39.29
16,-0.01,1.02,0.09,43.21
16,0.05,1.01,0.12,43.21
16,0.00,0.98,0.17,40.62
16,0.00,0.98,0.13,42.27
16,-0.09,0.98,0.13,42.27
16,-0.13,0.99,0.10,41.31
16,-0.13,0.99,0.09,41.03
16,-0.04,1.01,0.09,41.23
16,0.05,1.02,0.12,44.37
16,0.05,0.99,0.16,39.96
16,0.03,0.99,0.16,42.96
16,-0.09,0.99,0.15,42.96
16,-0.06,0.99,0.11,42.21
16,-0.13,0.99,0.09,45.70
16,-0.07,1.01,0.09,45.70
16,0.03,1.02,0.09,43.16
16,0.03,1.02,0.14,42.87
16,0.03,0.99,0.14,42.87
16,-0.05,0.99,0.14,44.37
16,-0.05,0.99,0.11,41.03
16,-0.12,0.99,0.11,39.90
16,-0.08,1.01,0.09,39.90
16,-0.08,1.02,0.10,40.98
16,0.01,1.02,0.08,44.10
16,0.04,1.00,0.14,44.10
16,0.02,0.99,0.16,41.84
16,-0.04,0.99,0.12,41.61
16,-0.12,0.99,0.12,41.61
16,-0.11,1.00,0.09,38.82
16,-0.11,0.95,0.09,42.03
16,-0.01,1.01,0.09,41.69
16,0.06,1.01,0.12,38.55
16,0.06,0.98,0.15,43.98
16,-0.01,0.98,0.15,43.34
16,-0.10,0.98,0.13,43.34
16,-0.12,0.99,0.10,41.83
16,-0.12,0.99,0.09,40.12
16,-0.03,1.02,0.09,40.12
16,0.03,1.01,0.12,47.21
16,0.03,1.01,0.15,42.24
16,0.02,0.99,0.15,42.78
16,-0.08,0.99,0.15,40.43
16,-0.08,0.98,0.11,44.23
16,-0.13,0.98,0.11,44.79
16,-0.07,1.02,0.09,44.79
16,-0.07,1.01,0.11,45.35
16,0.03,1.01,0.08,38.52
16,0.04,0.99,0.14,38.52
16,-0.06,0.99,0.15,42.50
16,-0.06,0.99,0.11,41.25
16,-0.13,0.98,0.11,41.25
16,-0.08,1.01,0.09,39.81
16,-0.08,1.02,0.10,44.21
16,0.02,1.02,0.10,44.20
16,0.04,1.00,0.14,43.42
16,0.04,0.98,0.15,40.15
16,-0.04,0.98,0.15,37.48
16,-0.13,0.99,0.13,37.48
16,-0.17,1.00,0.09,40.15
16,-0.11,1.00,0.10,40.24
16,-0.00,1.02,0.10,40.24
16,0.05,1.00,0.13,41.96
16,0.05,0.99,0.15,45.38
16,-0.00,0.99,0.15,46.04
16,-0.11,0.99,0.14,42.13
16,-0.11,0.98,0.09,44.59
16,-0.11,0.98,0.09,39.37
16,-0.03,1.02,0.09,39.37
16,-0.02,1.00,0.12,37.97
16,0.04,1.00,0.09,41.47
16,0.01,0.99,0.15,41.47
16,-0.09,0.98,0.14,42.09
16,-0.09,0.98,0.10,41.83
16,-0.13,0.98,0.10,41.70
16,-0.06,1.02,0.09,37.00
16,-0.06,1.02,0.11,46.04
16,0.04,1.02,0.11,43.06
16,0.04,0.99,0.14,43.06
16,0.04,1.00,0.14,45.80
16,-0.07,1.00,0.17,38.51
16,-0.13,0.99,0.11,38.51
16,-0.14,1.01,0.09,44.67
16,-0.08,1.01,0.11,45.51
16,0.03,1.02,0.11,45.51
16,0.04,1.00,0.14,41.18
16,0.04,1.04,0.15,40.42
16,-0.04,0.98,0.15,40.60
16,-0.11,0.99,0.12,35.90
16,-0.11,1.01,0.09,41.40
16,-0.10,1.01,0.09,39.95
16,-0.01,1.02,0.10,39.95
16,-0.01,0.99,0.13,45.36
16,0.05,0.99,0.16,41.87
16,-0.02,0.98,0.16,41.87
16,-0.11,0.99,0.13,39.04
16,-0.11,0.99,0.10,42.66
16,-0.11,0.99,0.10,42.54
16,-0.02,1.02,0.10,40.97
16,-0.02,1.00,0.12,41.54
16,0.05,1.00,0.12,40.01
16,0.00,0.98,0.15,40.01
16,0.00,0.99,0.14,42.22
16,-0.09,0.99,0.16,38.23
16,-0.12,0.99,0.10,38.23
16,-0.05,1.01,0.08,42.74
16,-0.05,1.01,0.12,40.17
16,0.04,1.00,0.12,40.17
16,0.03,0.99,0.16,42.38
16,0.03,0.99,0.14,41.89
16,-0.07,0.99,0.14,42.12
16,-0.13,0.99,0.12,43.69
16,-0.13,1.01,0.09,41.05
16,-0.07,1.01,0.09,41.11
16,0.03,1.01,0.12,41.11
16,0.04,0.99,0.15,44.68
16,0.04,0.99,0.15,40.80
16,-0.05,1.00,0.15,40.80
16,-0.13,0.99,0.11,47.45
16,-0.13,0.94,0.09,41.22
16,-0.10,1.00,0.09,40.96
16,0.01,1.03,0.11,42.52
16,0.01,1.00,0.14,43.11
16,0.04,1.00,0.14,41.77
16,-0.03,0.99,0.15,41.77
16,-0.06,0.99,0.12,41.95
16,-0.12,0.99,0.09,38.19
16,-0.11,1.00,0.09,38.19
16,-0.02,1.01,0.09,41.01
16,-0.02,1.01,0.13,40.14
16,0.05,1.01,0.13,40.66
16,-0.00,0.98,0.16,40.66
16,-0.00,0.99,0.14,39.47
16,-0.10,0.99,0.14,39.16
16,-0.13,0.99,0.10,39.16
16,-0.13,1.02,0.09,43.16
16,-0.05,1.02,0.12,43.23
16,0.04,1.01,0.12,43.23
16,0.03,0.99,0.15,42.37
16,0.03,0.99,0.14,43.66
16,-0.08,0.99,0.14,43.66
16,-0.13,1.00,0.11,40.45
16,-0.13,0.95,0.10,39.51
16,-0.07,1.01,0.10,39.82
16,0.03,1.01,0.11,39.04
16,0.03,0.99,0.14,39.64
16,0.04,0.99,0.14,41.14
16,-0.05,0.99,0.15,41.14
16,-0.06,0.99,0.11,45.29
16,-0.12,0.99,0.08,40.70
16,-0.08,1.00,0.08,40.70
16,0.01,1.02,0.10,43.07
16,0.01,1.02,0.14,38.86
16,0.05,1.00,0.14,38.54
17,0.00,0.99,0.14,40.76
17,-0.10,0.99,0.14,38.31
17,-0.12,0.99,0.11,38.31
17,-0.12,1.02,0.09,46.08
17,-0.03,1.02,0.12,38.00
17,0.04,1.01,0.12,38.00
17,0.02,0.97,0.16,42.67
17,0.02,0.97,0.14,41.03
17,-0.08,0.98,0.14,41.03
17,-0.12,1.00,0.11,42.31
17,-0.12,0.95,0.09,41.80
17,-0.06,1.02,0.09,41.81
17,0.04,1.01,0.11,41.03
17,0.04,0.99,0.15,43.79
17,0.04,0.99,0.15,45.14
17,-0.07,0.99,0.15,45.14
17,-0.12,0.99,0.11,37.73
17,-0.12,0.99,0.09,38.42
17,-0.09,1.00,0.09,38.42
17,0.01,1.02,0.10,39.91
17,0.01,1.02,0.14,44.00
17,0.04,1.00,0.14,43.85
17,-0.03,0.99,0.16,39.93
17,-0.03,1.00,0.12,40.94
17,-0.13,1.00,0.12,37.96
17,-0.10,1.01,0.11,37.96
17,-0.10,1.02,0.09,42.60
17,-0.00,1.02,0.07,41.79
17,0.05,1.01,0.13,41.79
17,-0.00,0.98,0.15,41.74
17,-0.00,0.98,0.14,42.97
17,-0.10,0.99,0.14,42.97
17,-0.12,1.00,0.09,39.98
17,-0.12,0.96,0.09,40.53
17,-0.02,1.02,0.09,39.89
17,0.04,1.00,0.11,41.46
17,0.04,0.99,0.15,45.10
17,0.02,0.99,0.15,43.06
17,-0.09,0.99,0.14,43.06
17,-0.12,1.00,0.10,38.96
17,-0.12,1.00,0.10,43.30
17,-0.05,1.01,0.10,43.30
17,0.04,1.02,0.11,39.35
17,0.04,1.05,0.16,42.19
17,0.03,0.99,0.16,41.48
17,-0.07,0.99,0.15,37.56
17,-0.07,0.99,0.11,46.17
17,-0.12,0.99,0.11,43.67
17,-0.08,1.01,0.08,43.67
17,-0.11,1.01,0.11,41.06
17,0.02,1.01,0.08,38.73
17,0.04,1.00,0.14,38.73
17,-0.04,0.99,0.16,41.21
17,-0.04,0.99,0.12,45.77
17,-0.12,0.99,0.12,45.77
17,-0.10,1.01,0.10,40.76
17,-0.10,1.01,0.11,38.75
17,-0.00,1.01,0.11,38.46
17,0.04,1.00,0.14,38.46
17,0.04,1.00,0.14,41.24
17,-0.02,1.00,0.13,45.25
17,-0.11,0.99,0.13,45.25
17,-0.11,1.00,0.10,41.09
17,-0.11,1.00,0.10,39.76
17,-0.02,1.02,0.10,39.76
17,0.05,1.00,0.13,37.22
17,0.05,1.05,0.15,43.45
17,0.01,0.99,0.15,43.33
17,-0.09,1.00,0.14,40.98
17,-0.09,0.99,0.11,42.49
17,-0.12,0.99,0.11,42.21
17,-0.05,1.01,0.09,42.21
17,-0.02,1.01,0.11,40.71
17,0.04,1.01,0.09,37.80
17,0.03,0.99,0.16,37.80
17,-0.08,0.99,0.14,39.43
17,-0.08,0.99,0.11,43.16
17,-0.11,0.99,0.11,43.71
17,-0.07,1.01,0.09,41.36
17,-0.07,1.02,0.11,41.62
17,0.02,1.02,0.11,42.33
17,0.03,0.99,0.14,42.33
17,0.03,0.99,0.14,41.62
17,-0.05,0.99,0.17,46.33
17,-0.12,0.99,0.11,46.33
17,-0.09,1.01,0.09,43.58
17,-0.09,1.01,0.11,41.74
17,0.01,1.02,0.11,41.74
17,0.05,1.00,0.14,39.31
17,0.05,1.05,0.15,43.47
17,-0.02,0.99,0.15,43.60
17,-0.12,0.98,0.13,43.60
17,-0.12,1.00,0.10,42.27
17,-0.11,1.00,0.10,45.13
17,-0.02,1.02,0.09,45.13
17,-0.02,1.01,0.13,41.23
17,0.05,1.01,0.15,42.70
17,0.01,0.99,0.15,42.70
17,-0.11,0.99,0.13,42.52
17,-0.11,0.99,0.11,42.14
17,-0.12,0.99,0.11,42.00
17,-0.04,1.02,0.10,42.00
17,-0.04,1.01,0.11,39.80
17,0.04,1.01,0.11,42.43
17,0.01,0.99,0.14,42.43
17,0.05,0.98,0.14,45.01
17,-0.08,0.98,0.17,45.41
17,-0.13,0.99,0.11,45.41
17,-0.06,1.01,0.08,38.24
17,-0.06,1.01,0.11,39.62
17,0.03,1.01,0.11,39.52
17,0.04,0.99,0.15,42.65
17,0.04,0.99,0.15,42.55
17,-0.06,0.99,0.15,39.39
17,-0.13,0.99,0.11,39.39
17,-0.13,1.00,0.09,41.80
17,-0.09,1.00,0.11,40.76
17,0.01,1.02,0.11,40.76
17,0.04,1.00,0.13,43.42
17,0.04,1.00,0.15,41.66
17,-0.04,0.99,0.15,41.66
17,-0.11,0.99,0.12,39.84
17,-0.11,0.94,0.10,41.01
17,-0.10,1.00,0.10,41.12
17,-0.01,1.03,0.09,41.91
17,-0.01,1.01,0.13,42.08
17,0.05,1.01,0.13,39.98
17,-0.00,0.99,0.15,39.98
17,-0.04,0.98,0.13,36.07
17,-0.10,0.98,0.16,39.04
17,-0.11,1.00,0.09,39.04
17,-0.03,1.03,0.10,43.68
17,-0.03,1.03,0.12,40.32
17,0.04,1.01,0.12,40.03
17,0.03,0.99,0.15,36.89
17,0.03,1.00,0.13,41.30
17,-0.09,1.00,0.13,45.08
17,-0.13,0.99,0.11,45.08
17,-0.18,1.02,0.10,41.53
17,-0.05,1.02,0.12,39.16
17,0.03,1.02,0.12,39.16
17,0.03,0.99,0.15,39.20
17,0.03,0.99,0.14,43.13
17,-0.07,1.00,0.14,43.13
17,-0.12,1.00,0.11,39.33
17,-0.12,0.94,0.09,45.37
17,-0.08,1.01,0.09,45.40
17,0.02,1.02,0.10,39.92
17,0.02,1.00,0.15,37.52
17,0.04,1.00,0.15,44.71
17,-0.04,1.00,0.15,44.71
17,-0.06,0.99,0.11,41.81
17,-0.12,0.99,0.10,43.86
17,-0.09,1.00,0.10,43.86
17,-0.00,1.02,0.10,42.34
17,-0.00,1.00,0.13,40.52
17,0.05,1.00,0.13,39.91
17,-0.01,0.98,0.15,41.47
17,-0.01,0.99,0.13,39.86
17,-0.11,0.99,0.13,40.67
17,-0.10,1.00,0.09,40.67
17,-0.09,1.02,0.09,39.88
17,-0.03,1.02,0.12,43.78
17,0.05,1.01,0.12,43.78
17,0.01,0.99,0.15,39.08
17,0.01,0.99,0.14,41.01
17,-0.10,0.99,0.14,40.84
17,-0.11,0.99,0.09,43.19
17,-0.11,0.96,0.09,44.06
17,-0.06,1.02,0.09,36.60
17,0.04,1.02,0.11,36.60
17,0.04,1.00,0.15,42.57
17,0.03,1.00,0.14,41.18
17,-0.07,0.99,0.14,41.18
17,-0.12,0.99,0.11,42.87
17,-0.12,0.99,0.10,37.83
17,-0.08,1.01,0.10,37.83
17,0.03,1.02,0.10,43.27
17,0.03,1.06,0.13,38.01
17,0.04,1.00,0.13,37.96
17,-0.05,0.98,0.15,38.74
17,-0.05,0.99,0.11,41.49
17,-0.12,0.99,0.11,42.44
17,-0.10,1.00,0.09,42.44
17,-0.12,1.02,0.10,41.51
17,0.00,1.02,0.06,43.06
17,0.05,1.00,0.13,43.06
17,-0.02,0.99,0.15,46.40
17,-0.02,0.99,0.12,39.90
17,-0.10,0.99,0.12,40.14
17,-0.10,1.00,0.10,41.70
17,-0.10,0.95,0.09,45.20
17,-0.02,1.01,0.09,39.63
17,0.04,1.01,0.13,39.63
17,0.01,0.99,0.16,42.65
17,0.01,0.99,0.14,37.87
17,-0.10,0.98,0.14,37.87
17,-0.12,0.99,0.10,37.78
17,-0.12,0.99,0.09,42.12
17,-0.05,1.02,0.09,42.12
17,0.04,1.01,0.11,40.62
17,0.04,1.05,0.15,44.92
17,0.03,0.99,0.15,45.17
17,-0.07,0.99,0.14,42.82
17,-0.07,0.99,0.11,38.37
17,-0.12,0.99,0.11,43.11
17,-0.06,1.01,0.09,43.11
17,-0.10,1.01,0.11,41.38
17,0.02,1.01,0.09,41.54
17,0.04,0.99,0.15,41.54
17,-0.06,0.99,0.15,45.32
17,-0.06,0.99,0.11,41.44
17,-0.12,0.99,0.11,40.69
17,-0.09,1.01,0.10,42.26
17,-0.09,1.02,0.11,41.65
17,0.02,1.02,0.11,40.58
17,0.05,1.00,0.13,40.58
17,0.04,0.99,0.15,41.60
17,-0.03,0.99,0.18,41.98
17,-0.12,0.99,0.12,41.98
17,-0.11,1.00,0.09,40.63
17,-0.11,1.00,0.09,39.75
17,-0.02,1.02,0.09,39.39
17,0.05,1.00,0.12,40.18
17,0.05,1.06,0.15,43.60
17,-0.01,0.99,0.15,41.83
17,-0.09,0.98,0.13,41.83
17,-0.09,0.99,0.10,41.69
17,-0.12,0.99,0.09,43.30
17,-0.04,1.01,0.09,43.30
17,-0.03,1.00,0.12,42.77
17,0.03,1.00,0.15,43.53
17,0.01,0.98,0.15,43.53
18,-0.06,0.98,0.11,40.76
18,-0.12,0.99,0.11,41.37
18,-0.08,1.01,0.10,42.15
18,-0.08,1.01,0.10,46.45
18,0.02,1.01,0.10,43.38
18,0.04,1.00,0.13,43.38
18,0.04,0.99,0.15,41.40
18,-0.03,0.99,0.19,37.62
18,-0.11,0.99,0.12,37.62
18,-0.11,1.00,0.09,41.00
18,-0.11,1.00,0.10,46.86
18,-0.01,1.02,0.10,46.86
18,0.05,1.00,0.12,43.83
18,0.05,0.99,0.15,42.66
18,-0.01,0.99,0.15,42.54
18,-0.10,0.99,0.13,44.10
18,-0.10,1.00,0.10,40.83
18,-0.12,1.00,0.10,41.05
18,-0.02,1.02,0.09,41.05
18,-0.02,1.01,0.12,45.13
18,0.05,1.01,0.08,43.50
18,0.01,0.99,0.15,43.50
18,-0.09,0.99,0.13,40.13
18,-0.09,0.99,0.11,40.36
18,-0.12,0.99,0.11,40.03
18,-0.06,1.01,0.09,43.95
18,-0.06,1.01,0.11,40.39
18,0.03,1.01,0.11,42.62
18,0.03,0.99,0.14,42.62
18,0.06,0.99,0.15,39.09
18,-0.07,0.99,0.17,42.54
18,-0.12,0.99,0.11,42.54
18,-0.08,1.02,0.09,44.99
18,-0.08,1.02,0.11,42.87
18,0.01,1.02,0.11,42.87
18,0.04,0.99,0.15,44.05
18,0.04,0.98,0.16,43.02
18,-0.04,0.98,0.16,43.30
18,-0.12,0.99,0.11,41.74
18,-0.12,1.00,0.09,40.44
18,-0.10,1.00,0.09,36.62
18,-0.01,1.01,0.10,36.62
18,-0.01,1.00,0.14,39.61
18,0.05,1.00,0.15,37.32
18,-0.02,0.98,0.15,37.32
18,-0.10,0.99,0.12,42.74
18,-0.10,0.94,0.10,38.68
18,-0.11,1.01,0.10,38.78
18,-0.03,1.02,0.10,42.70
18,-0.03,1.00,0.12,40.30
18,0.05,1.00,0.12,42.69
18,0.01,0.99,0.16,42.69
18,0.04,0.99,0.13,43.70
18,-0.09,0.99,0.16,42.41
18,-0.12,0.98,0.10,42.41
18,-0.05,1.01,0.10,42.74
18,-0.05,1.01,0.12,45.62
18,0.03,1.01,0.12,45.62
18,0.03,1.00,0.15,40.52
18,0.03,0.99,0.13,47.46
18,-0.07,0.99,0.13,45.00
18,-0.12,1.00,0.10,45.00
18,-0.12,1.00,0.10,43.60
18,-0.07,1.00,0.10,43.73
18,0.02,1.02,0.10,43.73
18,0.03,1.00,0.15,42.93
18,0.03,1.00,0.15,37.56
18,-0.05,1.00,0.15,37.56
18,-0.12,0.99,0.12,38.68
18,-0.12,0.94,0.10,42.57
18,-0.08,1.01,0.10,42.65
18,0.00,1.01,0.11,39.51
18,0.00,0.99,0.13,41.40
18,0.04,0.99,0.13,48.51
18,-0.02,0.99,0.15,48.51
18,-0.04,0.99,0.13,45.29
18,-0.11,0.99,0.16,43.60
18,-0.10,1.01,0.10,43.60
18,-0.02,1.02,0.09,39.07
18,-0.02,1.02,0.13,45.65
18,0.05,1.01,0.13,45.70
18,-0.00,0.98,0.15,40.22
18,-0.00,0.99,0.14,40.06
18,-0.10,0.99,0.14,38.43
18,-0.11,1.00,0.10,38.43
18,-0.11,1.02,0.10,42.28
18,-0.05,1.02,0.12,38.44
18,0.04,1.01,0.12,38.44
18,0.02,0.98,0.15,44.31
18,0.02,0.98,0.14,42.39
18,-0.08,1.01,0.14,42.39
18,-0.12,0.99,0.11,36.90
18,-0.12,0.95,0.09,41.68
18,-0.07,1.01,0.09,41.61
18,0.03,1.02,0.12,41.61
18,0.03,1.00,0.15,41.34
18,0.04,1.00,0.15,41.71
18,-0.05,0.99,0.14,41.71
18,-0.05,0.99,0.10,44.33
18,-0.12,0.99,0.09,39.65
18,-0.09,1.01,0.09,39.65
18,0.01,1.02,0.11,39.36
18,0.01,1.06,0.13,41.10
18,0.05,1.00,0.13,41.07
18,-0.03,0.98,0.15,41.86
18,-0.03,0.99,0.12,46.27
18,-0.11,0.99,0.12,43.89
18,-0.10,1.00,0.10,43.89
18,-0.07,1.01,0.10,44.41
18,-0.01,1.01,0.07,42.73
18,0.04,1.01,0.14,42.73
18,-0.00,0.99,0.14,42.13
18,-0.00,0.99,0.13,37.74
18,-0.10,0.99,0.13,38.23
18,-0.11,1.00,0.09,39.79
18,-0.11,0.95,0.09,40.66
18,-0.04,1.02,0.09,43.91
18,0.03,1.01,0.12,43.91
18,0.03,0.99,0.14,45.82
18,0.02,0.99,0.15,41.11
18,-0.09,0.98,0.15,41.11
18,-0.11,1.00,0.10,40.52
18,-0.11,1.00,0.10,43.56
18,-0.06,1.02,0.10,43.56
18,0.03,1.01,0.11,41.97
18,0.03,1.06,0.15,41.21
18,0.03,0.99,0.15,41.32
18,-0.05,1.00,0.14,46.02
18,-0.05,0.99,0.11,46.53
18,-0.12,0.99,0.11,42.00
18,-0.08,1.01,0.09,42.00
18,-0.11,1.02,0.10,42.08
18,0.02,1.02,0.08,42.22
18,0.04,0.98,0.14,42.22
18,-0.03,0.99,0.14,41.31
18,-0.03,0.99,0.12,43.90
18,-0.12,0.99,0.12,44.06
18,-0.10,1.00,0.10,39.36
18,-0.10,1.02,0.11,39.60
18,-0.01,1.02,0.11,41.58
18,0.04,1.01,0.12,41.58
18,0.04,0.98,0.16,39.59
18,-0.02,0.98,0.19,41.63
18,-0.10,0.99,0.12,41.63
18,-0.11,1.00,0.10,38.31
18,-0.11,1.00,0.11,41.43
18,-0.03,1.02,0.11,41.43
18,0.04,1.01,0.13,41.17
18,0.04,1.04,0.14,45.93
18,0.00,0.98,0.14,46.08
18,-0.08,0.99,0.13,41.38
18,-0.08,1.00,0.10,46.16
18,-0.12,1.00,0.10,44.15
18,-0.05,1.01,0.10,44.15
18,-0.04,1.01,0.12,41.34
18,0.03,1.01,0.08,45.11
18,0.02,0.99,0.14,45.11
18,-0.06,0.99,0.14,41.23
18,-0.06,0.99,0.11,45.94
18,-0.12,0.99,0.11,45.48
18,-0.08,1.01,0.09,38.43
18,-0.08,1.02,0.10,40.81
18,0.01,1.02,0.10,44.51
18,0.04,1.00,0.15,44.51
18,0.02,1.00,0.15,42.95
18,-0.05,1.00,0.18,43.23
18,-0.12,0.99,0.12,43.23
18,-0.09,1.00,0.09,43.36
18,-0.09,1.00,0.10,40.02
18,-0.00,1.01,0.10,40.02
18,0.04,1.00,0.12,40.81
18,0.04,1.05,0.14,43.97
18,-0.02,0.99,0.14,42.33
18,-0.11,0.99,0.13,42.33
18,-0.11,1.00,0.10,40.84
18,-0.11,1.00,0.10,43.23
18,-0.03,1.02,0.10,43.23
18,-0.02,1.01,0.13,47.23
18,0.04,1.01,0.15,40.93
18,0.00,0.99,0.15,40.93
18,-0.08,0.99,0.13,45.82
18,-0.08,1.00,0.10,42.55
18,-0.12,1.00,0.10,42.68
18,-0.05,1.01,0.10,41.90
18,-0.05,1.01,0.12,37.92
18,0.03,1.01,0.12,43.79
18,0.01,0.98,0.15,43.79
18,0.05,0.99,0.14,44.05
18,-0.07,0.99,0.12,43.68
18,-0.12,0.98,0.12,43.68
18,-0.07,1.00,0.10,41.55
18,-0.07,1.02,0.11,40.52
18,0.02,1.02,0.11,40.03
18,0.03,0.99,0.15,43.17
18,0.03,1.00,0.15,43.44
18,-0.04,1.00,0.15,41.11
18,-0.13,0.99,0.12,41.11
18,-0.16,1.00,0.10,41.64
18,-0.09,1.00,0.10,41.72
18,0.01,1.01,0.10,41.72
18,0.04,1.00,0.14,42.24
18,0.04,1.00,0.15,44.38
18,-0.03,0.98,0.15,44.12
18,-0.11,0.99,0.13,41.77
18,-0.11,0.94,0.10,38.66
18,-0.10,1.00,0.10,42.07
18,-0.02,1.02,0.10,42.07
18,-0.02,1.00,0.13,36.77
18,0.04,1.00,0.15,43.83
18,-0.00,0.99,0.15,43.83
18,-0.10,0.98,0.14,40.43
18,-0.10,0.98,0.10,40.35
18,-0.12,1.00,0.10,40.35
18,-0.04,1.01,0.10,41.44
18,-0.04,1.01,0.11,40.93
18,0.03,1.01,0.11,43.17
18,0.02,0.99,0.16,43.17
18,0.02,0.99,0.13,43.39
18,-0.07,0.99,0.17,44.13
18,-0.13,0.98,0.11,44.13
18,-0.13,1.01,0.10,42.99
18,-0.07,1.01,0.11,50.28
18,0.03,1.02,0.11,50.28
18,0.03,1.00,0.14,39.94
18,0.03,0.98,0.14,45.39
18,-0.06,0.98,0.14,45.79
18,-0.11,0.99,0.13,43.44
18,-0.11,1.00,0.08,42.12
18,-0.09,1.00,0.08,45.29
18,0.00,1.01,0.10,45.29
18,0.04,0.99,0.14,39.44
18,0.04,0.99,0.14,41.05
18,-0.03,0.99,0.14,41.05
19,-0.10,0.99,0.10,37.92
19,-0.11,0.99,0.10,38.25
19,-0.04,1.02,0.11,40.60
19,-0.04,1.01,0.13,41.78
19,0.04,1.01,0.13,38.29
19,0.01,1.00,0.15,38.29
19,0.04,0.99,0.14,44.39
19,-0.09,0.99,0.16,43.03
19,-0.11,0.99,0.10,43.03
19,-0.05,1.02,0.10,42.90
19,-0.05,1.02,0.11,41.38
19,0.02,1.01,0.11,41.38
19,0.02,1.00,0.14,43.64
19,0.02,0.99,0.14,42.79
19,-0.07,0.99,0.14,42.72
19,-0.12,0.98,0.11,45.86
19,-0.12,1.01,0.10,46.62
19,-0.08,1.01,0.11,43.16
19,0.02,1.02,0.11,43.16
19,0.04,0.99,0.14,45.67
19,0.04,0.99,0.14,43.31
19,-0.04,0.99,0.14,43.31
19,-0.11,0.99,0.11,39.88
19,-0.11,0.94,0.09,39.80
19,-0.09,1.01,0.09,39.15
19,-0.01,1.01,0.10,40.72
19,-0.01,1.01,0.13,43.76
19,0.04,1.01,0.13,39.41
19,-0.02,0.98,0.16,39.41
19,-0.03,0.99,0.12,43.91
19,-0.09,0.99,0.10,42.74
19,-0.11,1.00,0.10,42.74
19,-0.02,1.01,0.10,39.96
19,-0.02,1.01,0.12,46.65
19,0.04,1.01,0.12,46.44
19,0.00,0.99,0.16,40.17
19,0.00,0.99,0.12,44.11
19,-0.09,0.99,0.12,42.41
19,-0.11,1.00,0.10,42.41
19,-0.10,1.02,0.09,41.62
19,-0.04,1.02,0.12,42.48
19,0.02,1.02,0.12,42.48
19,0.02,0.99,0.15,44.82
19,0.02,0.99,0.14,43.35
19,-0.07,0.99,0.14,43.75
19,-0.12,0.99,0.11,39.83
19,-0.12,0.94,0.09,41.85
19,-0.07,1.00,0.09,39.09
19,0.02,1.02,0.10,39.09
19,0.02,1.00,0.14,43.49
19,0.04,1.00,0.15,40.33
19,-0.05,0.98,0.15,40.33
19,-0.11,0.99,0.13,41.37
19,-0.11,0.99,0.09,39.21
19,-0.09,1.01,0.09,39.21
19,-0.01,1.01,0.11,40.38
19,-0.01,1.00,0.13,43.66
19,0.04,1.00,0.13,43.54
19,-0.02,0.98,0.16,48.24
19,-0.02,0.99,0.12,46.98
19,-0.10,0.99,0.10,41.02
19,-0.11,1.00,0.10,41.02
19,-0.09,1.01,0.09,40.11
19,-0.03,1.01,0.14,43.83
19,0.04,1.01,0.14,43.83
19,-0.00,0.99,0.15,41.16
19,-0.00,0.99,0.13,40.56
19,-0.09,0.99,0.13,39.93
19,-0.12,0.99,0.10,43.84
19,-0.12,1.01,0.10,43.49
19,-0.04,1.01,0.10,42.50
19,0.03,1.02,0.13,42.50
19,0.02,0.98,0.14,43.81
19,0.02,0.98,0.13,44.16
19,-0.08,0.99,0.13,44.16
19,-0.11,1.00,0.11,42.51
19,-0.11,1.00,0.10,45.33
19,-0.07,1.01,0.10,44.93
19,0.02,1.02,0.11,37.88
19,0.02,0.99,0.15,41.03
19,0.03,0.99,0.15,43.72
19,-0.05,1.00,0.14,43.72
19,-0.05,0.99,0.12,49.46
19,-0.12,0.99,0.10,42.14
19,-0.09,1.00,0.10,42.14
19,0.01,1.02,0.11,45.93
19,0.01,1.02,0.13,41.90
19,0.03,1.00,0.13,41.71
19,-0.03,0.98,0.14,40.15
19,-0.03,1.00,0.12,41.21
19,-0.10,1.00,0.12,39.78
19,-0.10,1.00,0.10,39.78
19,-0.10,1.01,0.10,41.36
19,-0.02,1.01,0.06,42.13
19,0.03,1.01,0.13,42.13
19,0.06,0.99,0.15,42.65
19,-0.00,0.99,0.13,41.42
19,-0.09,0.98,0.13,41.42
19,-0.11,1.00,0.09,45.73
19,-0.11,1.01,0.10,41.03
19,-0.04,1.01,0.10,40.70
19,0.04,1.01,0.12,44.62
19,0.04,0.99,0.15,38.85
19,0.02,0.99,0.15,44.17
19,-0.08,1.00,0.13,44.17
19,-0.12,0.99,0.12,40.17
19,-0.12,0.99,0.09,45.28
19,-0.07,1.02,0.09,45.28
19,0.02,1.01,0.12,38.70
19,0.02,1.06,0.15,40.65
19,0.02,1.00,0.15,39.89
19,-0.06,1.00,0.14,44.59
19,-0.06,0.99,0.11,42.15
19,-0.12,0.99,0.11,36.85
19,-0.08,1.01,0.10,36.85
19,-0.12,1.01,0.11,43.73
19,0.01,1.01,0.07,41.63
19,0.03,1.00,0.14,41.63
19,-0.03,1.00,0.14,43.53
19,-0.03,1.00,0.12,46.77
19,-0.11,0.99,0.12,46.37
19,-0.10,1.00,0.10,44.02
19,-0.10,1.01,0.10,40.03
19,-0.01,1.01,0.10,44.13
19,0.04,1.00,0.13,44.13
19,0.05,0.99,0.14,40.63
19,-0.01,0.99,0.13,42.67
19,-0.10,0.99,0.13,42.67
19,-0.11,0.99,0.10,46.47
19,-0.11,0.99,0.11,43.51
19,-0.04,1.01,0.11,43.51
19,0.03,1.00,0.13,40.28
19,0.03,1.05,0.15,43.57
19,0.01,0.98,0.15,41.09
19,-0.08,0.99,0.13,41.09
19,-0.08,0.99,0.11,41.46
19,-0.12,0.99,0.10,42.48
19,-0.06,1.01,0.10,42.48
19,-0.04,1.01,0.12,38.75
19,0.03,1.01,0.16,44.07
19,0.02,0.99,0.16,44.07
19,-0.06,0.99,0.13,40.32
19,-0.06,0.98,0.12,47.58
19,-0.11,0.98,0.12,47.16
19,-0.07,1.02,0.10,40.11
19,-0.07,1.02,0.10,40.53
19,0.01,1.02,0.10,43.70
19,0.03,1.00,0.13,43.70
19,0.03,0.99,0.15,43.38
19,-0.04,0.99,0.12,42.46
19,-0.11,0.99,0.12,42.46
19,-0.09,1.00,0.09,41.49
19,-0.09,0.96,0.10,42.03
19,-0.01,1.02,0.10,42.10
19,0.04,1.00,0.13,42.10
19,0.04,0.99,0.14,42.71
19,-0.02,0.99,0.14,43.90
19,-0.09,0.99,0.12,43.90
19,-0.11,1.00,0.10,45.65
19,-0.11,1.00,0.10,44.80
19,-0.03,1.02,0.10,44.80
19,0.04,1.00,0.13,43.06
19,0.04,1.00,0.14,39.41
19,0.01,1.00,0.14,39.85
19,-0.09,0.99,0.13,39.85
19,-0.09,0.99,0.10,39.38
19,-0.11,0.99,0.10,40.82
19,-0.06,1.02,0.10,40.82
19,-0.03,1.01,0.12,39.10
19,0.03,1.01,0.09,40.78
19,0.01,0.99,0.15,40.78
19,-0.07,0.99,0.13,41.10
19,-0.07,0.99,0.11,42.93
19,-0.11,0.99,0.11,42.93
19,-0.07,1.01,0.10,37.64
19,-0.07,1.01,0.11,39.54
19,0.02,1.01,0.11,39.46
19,0.04,0.99,0.13,38.68
19,0.04,0.99,0.15,41.04
19,-0.04,0.99,0.18,40.24
19,-0.11,0.99,0.12,40.24
19,-0.09,1.00,0.09,41.74
19,-0.09,1.00,0.11,39.24
19,-0.01,1.01,0.11,39.24
19,0.04,1.00,0.13,41.41
19,0.04,0.99,0.15,40.02
19,-0.02,0.99,0.15,40.11
19,-0.10,0.99,0.12,36.98
19,-0.10,1.00,0.09,44.42
19,-0.11,1.00,0.09,42.66
19,-0.02,1.01,0.10,42.66
19,-0.03,1.00,0.13,42.00
19,0.04,1.00,0.15,43.94
19,-0.00,0.99,0.15,43.94
19,-0.10,0.99,0.13,39.28
19,-0.10,0.94,0.10,36.23
19,-0.11,1.00,0.10,36.53
19,-0.04,1.01,0.08,39.67
19,-0.04,1.01,0.13,44.42
19,0.04,1.01,0.13,39.31
19,0.01,0.99,0.16,39.31
19,0.05,1.00,0.12,39.82
19,-0.07,1.00,0.11,45.00
19,-0.12,0.99,0.11,45.00
19,-0.06,1.01,0.10,44.98
19,-0.06,1.01,0.11,42.67
19,0.03,1.01,0.11,42.91
19,0.03,1.00,0.13,43.69
19,0.03,0.99,0.14,41.00
19,-0.04,0.99,0.14,40.92
19,-0.11,0.99,0.11,40.92
19,-0.11,1.00,0.09,44.47
19,-0.08,1.00,0.11,43.78
19,0.01,1.02,0.11,43.78
19,0.04,1.00,0.14,45.42
19,0.04,1.00,0.14,40.31
19,-0.03,0.99,0.14,40.31
19,-0.10,0.99,0.13,39.99
19,-0.10,0.94,0.10,41.62
19,-0.10,1.00,0.10,42.03
19,-0.02,1.01,0.09,44.38
19,-0.02,1.00,0.13,43.47
19,0.03,1.00,0.15,42.05
19,-0.00,1.00,0.15,42.05
19,-0.03,0.98,0.13,43.60
19,-0.10,0.98,0.11,41.74
19,-0.10,1.00,0.11,41.74
19,-0.04,1.02,0.10,42.26
19,-0.04,1.00,0.12,41.01
19,0.03,1.00,0.12,41.38
19,0.01,0.99,0.15,45.30
19,0.01,1.00,0.13,45.82
20,-0.11,0.99,0.10,40.56
20,0.03,1.01,0.15,43.34
20,0.02,0.99,0.15,43.54
20,-0.06,0.99,0.14,44.33
20,-0.06,0.99,0.11,45.96
20,-0.11,0.99,0.11,40.89
20,-0.08,1.00,0.10,40.89
20,-0.08,1.01,0.12,38.20
20,0.01,1.01,0.08,46.47
20,0.03,1.00,0.14,46.47
20,0.02,0.99,0.15,45.32
20,-0.04,0.99,0.12,46.43
20,-0.11,0.99,0.12,46.43
20,-0.09,1.00,0.10,37.50
20,-0.09,1.01,0.10,44.26
20,-0.01,1.01,0.10,44.18
20,0.03,1.00,0.14,44.97
20,0.03,0.99,0.15,43.39
20,-0.02,0.99,0.15,41.08
20,-0.11,0.99,0.13,41.08
20,-0.09,1.00,0.10,40.12
20,-0.09,1.00,0.10,38.79
20,-0.02,1.02,0.10,38.79
20,0.03,1.01,0.13,41.81
20,0.03,1.01,0.15,43.19
20,0.00,1.00,0.15,43.78
20,-0.08,0.99,0.13,43.00
20,-0.08,0.99,0.11,45.05
20,-0.12,0.99,0.11,39.18
20,-0.05,1.01,0.10,39.18
20,-0.04,1.01,0.12,41.74
20,0.03,1.01,0.08,44.03
20,0.02,0.99,0.14,44.03
20,-0.08,0.99,0.13,42.45
20,-0.08,0.99,0.11,43.56
20,-0.12,0.99,0.11,43.56
20,-0.07,1.01,0.10,42.74
20,-0.07,1.01,0.11,39.04
20,0.02,1.01,0.11,38.86
20,0.03,1.00,0.14,41.21
20,0.03,0.99,0.14,42.06
20,-0.05,0.99,0.18,46.09
20,-0.11,0.99,0.12,46.09
20,-0.08,1.00,0.10,42.43
20,-0.08,1.00,0.10,37.58
20,-0.01,1.02,0.10,37.58
20,0.04,1.00,0.13,43.69
20,0.04,1.05,0.14,43.19
20,-0.02,0.99,0.14,43.34
20,-0.11,0.99,0.13,41.77
20,-0.11,1.00,0.10,40.11
20,-0.11,1.00,0.10,45.95
20,-0.03,1.01,0.11,45.95
20,-0.02,1.01,0.12,45.14
20,0.04,1.01,0.09,42.50
20,-0.00,0.99,0.15,42.50
20,-0.09,0.99,0.13,48.36
20,-0.09,0.99,0.11,44.95
20,-0.11,0.99,0.11,45.23
20,-0.04,1.01,0.10,40.53
20,-0.04,1.00,0.12,40.13
20,0.03,1.00,0.12,43.65
20,0.01,1.00,0.16,43.65
20,0.01,1.00,0.13,40.73
20,-0.07,1.00,0.17,38.87
20,-0.12,0.99,0.11,38.87
20,-0.12,1.01,0.09,41.30
20,-0.06,1.01,0.11,41.64
20,0.01,1.02,0.11,41.64
20,0.03,1.00,0.15,38.66
20,0.03,0.99,0.14,41.18
20,-0.06,0.99,0.14,41.18
20,-0.11,1.00,0.11,41.96
20,-0.11,1.01,0.10,42.56
20,-0.08,1.01,0.10,42.21
20,0.00,1.01,0.10,42.21
20,0.03,0.99,0.14,42.52
20,0.03,0.99,0.15,42.92
20,-0.04,0.99,0.15,42.92
20,-0.10,0.99,0.12,40.88
20,-0.10,0.94,0.10,44.70
20,-0.09,1.01,0.10,45.11
20,-0.01,1.02,0.10,40.41
20,-0.01,1.00,0.13,43.19
20,0.04,1.00,0.13,42.50
20,-0.01,0.99,0.15,42.50
20,-0.03,0.99,0.12,43.06
20,-0.10,0.99,0.11,41.27
20,-0.11,0.99,0.11,41.27
20,-0.05,1.00,0.11,41.17
20,-0.05,1.00,0.12,41.48
20,0.03,1.00,0.12,41.48
20,0.02,0.99,0.14,46.68
20,0.02,0.99,0.14,43.78
20,-0.08,0.99,0.14,43.30
20,-0.11,0.99,0.11,42.52
20,-0.11,1.01,0.09,40.26
20,-0.06,1.01,0.11,43.21
20,0.02,1.01,0.11,43.21
20,0.03,0.99,0.14,43.39
20,0.03,0.99,0.14,44.32
20,-0.06,0.99,0.14,44.32
20,-0.11,1.00,0.12,46.79
20,-0.11,0.94,0.10,39.33
20,-0.08,1.00,0.10,39.19
20,0.00,1.01,0.12,41.54
20,0.00,0.99,0.14,38.64
20,0.03,0.99,0.14,38.49
20,-0.04,1.00,0.14,38.49
20,-0.05,1.00,0.11,38.99
20,-0.11,1.00,0.10,43.33
20,-0.10,1.00,0.10,43.33
20,-0.01,1.00,0.11,38.26
20,-0.01,1.00,0.13,39.58
20,0.04,1.01,0.13,39.88
20,-0.02,0.99,0.15,44.58
20,-0.02,0.99,0.12,40.07
20,-0.10,0.99,0.12,42.77
20,-0.11,0.99,0.10,42.77
20,-0.11,1.01,0.11,43.82
20,-0.03,1.01,0.07,40.96
20,0.03,1.01,0.13,40.96
20,0.06,0.99,0.15,41.21
20,-0.00,0.99,0.13,39.86
20,-0.08,0.99,0.13,39.86
20,-0.11,1.00,0.10,36.62
20,-0.11,1.01,0.11,40.72
20,-0.05,1.01,0.11,40.83
20,0.03,1.01,0.13,46.31
20,0.03,0.99,0.15,35.99
20,0.02,0.99,0.15,39.72
20,-0.06,0.99,0.14,39.72
20,-0.11,0.99,0.12,39.65
20,-0.11,0.99,0.11,39.45
20,-0.08,1.01,0.11,39.45
20,0.01,1.01,0.11,35.14
20,0.01,1.01,0.14,40.09
20,0.03,0.99,0.14,40.22
20,-0.04,0.99,0.14,37.09
20,-0.04,0.98,0.11,43.58
20,-0.11,0.98,0.11,39.71
20,-0.09,1.01,0.11,39.71
20,-0.09,1.01,0.11,41.60
20,-0.01,1.01,0.07,43.21
20,0.04,1.00,0.14,43.21
20,-0.02,0.99,0.15,40.23
20,-0.02,0.99,0.12,42.51
20,-0.11,0.99,0.12,42.51
20,-0.10,1.00,0.10,39.56
20,-0.10,0.95,0.10,40.74
20,-0.02,1.01,0.10,41.29
20,0.03,1.00,0.12,44.43
20,0.03,0.99,0.15,41.09
20,-0.00,0.99,0.13,45.77
20,-0.08,1.00,0.13,45.77
20,-0.10,1.00,0.11,40.74
20,-0.10,1.00,0.09,40.02
20,-0.04,1.01,0.09,40.02
20,0.02,1.00,0.13,39.20
20,0.02,1.06,0.16,44.39
20,0.01,0.99,0.16,44.09
20,-0.06,0.99,0.15,43.30
20,-0.06,1.00,0.11,43.25
20,-0.11,1.00,0.11,43.17
20,-0.06,1.00,0.10,43.17
20,-0.11,1.01,0.11,43.94
20,0.02,1.01,0.07,44.71
20,0.03,1.00,0.13,44.71
20,-0.04,0.99,0.14,35.82
20,-0.04,0.99,0.12,40.98
20,-0.11,0.99,0.12,40.88
20,-0.09,1.00,0.10,40.88
20,-0.09,1.01,0.11,40.61
20,-0.01,1.01,0.11,40.75
20,0.03,0.99,0.14,40.75
20,0.03,0.99,0.15,40.84
20,-0.03,0.99,0.18,41.00
20,-0.10,0.99,0.12,41.00
20,-0.09,1.00,0.10,42.56
20,-0.09,1.00,0.10,40.74
20,-0.02,1.01,0.10,40.74
20,0.04,1.00,0.13,39.82
20,0.04,1.05,0.13,42.08
20,-0.01,0.99,0.13,41.60
20,-0.10,0.99,0.14,40.81
20,-0.10,1.00,0.10,38.72
20,-0.10,1.00,0.10,40.60
20,-0.05,1.01,0.10,40.60
20,-0.03,1.00,0.13,44.06
20,0.03,1.00,0.15,41.11
20,0.01,0.99,0.15,41.11
20,-0.07,1.00,0.13,45.97
20,-0.07,1.00,0.11,39.46
20,-0.11,1.00,0.11,39.57
20,-0.06,1.00,0.09,41.92
20,-0.06,0.95,0.11,40.52
20,0.02,1.01,0.11,39.61
20,0.03,1.00,0.14,39.61
20,0.01,1.00,0.14,37.51
20,-0.05,1.00,0.17,38.18
20,-0.10,0.99,0.11,38.18
20,-0.08,1.00,0.10,41.00
20,-0.08,1.00,0.11,40.37
20,-0.00,1.02,0.11,40.37
20,0.03,1.00,0.13,44.06
20,0.03,0.99,0.14,42.93
20,-0.03,0.99,0.14,42.62
21,-0.10,0.99,0.10,40.42
21,-0.11,0.99,0.10,40.12
21,-0.04,1.01,0.10,40.12
21,-0.04,1.01,0.12,43.50
21,0.03,1.01,0.15,37.13
21,0.01,1.00,0.15,37.13
21,-0.08,0.99,0.12,39.65
21,-0.08,0.99,0.11,40.67
21,-0.10,0.99,0.11,40.71
21,-0.05,1.02,0.09,38.36
21,-0.05,1.02,0.11,39.40
21,0.03,1.02,0.11,40.58
21,0.02,0.99,0.14,40.58
21,0.00,0.99,0.14,43.86
21,-0.06,0.99,0.17,44.83
21,-0.11,1.00,0.11,44.83
21,-0.07,1.01,0.09,48.07
21,-0.07,1.01,0.11,40.27
21,0.00,1.02,0.11,40.12
21,0.03,1.00,0.14,40.12
21,0.03,1.00,0.13,40.77
21,-0.04,1.00,0.13,40.00
21,-0.11,0.99,0.12,40.00
21,-0.11,1.01,0.09,40.43
21,-0.09,1.01,0.10,43.49
21,0.00,1.01,0.10,43.49
21,0.03,1.00,0.12,41.40
21,0.03,1.00,0.15,42.96
21,-0.02,0.99,0.15,42.96
21,-0.11,0.99,0.13,36.89
21,-0.11,0.94,0.09,49.55
21,-0.10,1.01,0.09,50.01
21,-0.03,1.02,0.11,41.39
21,-0.03,1.00,0.13,45.84
21,0.03,1.00,0.13,40.46
21,-0.00,0.99,0.15,40.46
21,-0.02,0.99,0.13,45.55
21,-0.08,0.99,0.16,43.53
21,-0.11,0.99,0.10,43.53
21,-0.06,1.01,0.10,43.58
21,-0.06,1.01,0.12,43.02
21,0.02,1.01,0.12,43.39
21,0.01,0.99,0.13,44.17
21,0.01,0.98,0.13,47.37
21,-0.07,0.98,0.13,42.71
21,-0.12,0.99,0.10,42.71
21,-0.06,1.01,0.09,37.38
21,-0.06,1.01,0.11,38.71
21,0.01,1.02,0.11,38.71
21,0.03,1.00,0.14,40.01
21,0.03,1.00,0.14,42.56
21,-0.05,0.99,0.14,42.56
21,-0.11,0.99,0.12,40.49
21,-0.11,0.94,0.09,43.44
21,-0.08,1.00,0.09,43.67
21,-0.00,1.01,0.11,42.10
21,-0.00,1.00,0.13,44.78
21,0.03,1.00,0.13,44.68
21,-0.03,0.99,0.14,44.68
21,-0.05,0.99,0.14,41.77
21,-0.11,0.99,0.16,42.39
21,-0.10,1.00,0.10,42.39
21,-0.02,1.00,0.11,39.61
21,-0.02,1.01,0.13,38.75
21,0.03,1.01,0.13,38.67
21,-0.01,0.99,0.15,41.81
21,-0.01,0.99,0.13,41.93
21,-0.09,0.99,0.13,41.59
21,-0.10,1.00,0.11,41.59
21,-0.11,1.01,0.11,37.45
21,-0.05,1.01,0.12,35.39
21,0.03,1.01,0.12,35.39
21,0.01,1.00,0.14,45.20
21,0.01,1.00,0.13,40.07
21,-0.07,1.00,0.13,40.07
21,-0.10,1.00,0.10,39.68
21,-0.10,1.00,0.10,40.92
21,-0.06,1.00,0.10,40.51
21,0.01,1.01,0.10,40.51
21,0.01,1.00,0.14,43.91
21,0.02,1.00,0.14,40.56
21,-0.04,0.99,0.14,40.56
21,-0.05,0.99,0.11,41.85
21,-0.11,0.99,0.10,44.22
21,-0.08,1.00,0.10,44.22
21,-0.00,1.02,0.11,37.43
21,-0.00,1.06,0.14,40.11
21,0.03,1.00,0.14,40.60
21,-0.02,0.99,0.13,39.82
21,-0.02,1.00,0.11,39.26
21,-0.10,1.00,0.11,39.99
21,-0.10,1.00,0.09,39.99
21,-0.08,1.01,0.10,42.55
21,-0.02,1.01,0.07,41.96
21,0.03,1.00,0.14,41.96
21,-0.01,0.99,0.14,39.14
21,-0.01,0.99,0.12,41.33
21,-0.09,0.99,0.12,41.38
21,-0.11,0.99,0.11,38.25
21,-0.11,0.94,0.11,42.60
21,-0.04,1.01,0.11,38.49
21,0.03,1.01,0.12,38.49
21,0.03,0.99,0.14,39.67
21,0.00,0.99,0.13,38.84
21,-0.07,0.99,0.13,38.84
21,-0.11,0.99,0.11,41.55
21,-0.11,0.99,0.10,41.23
21,-0.06,1.00,0.10,41.23
21,0.02,1.01,0.12,38.32
21,0.02,1.00,0.15,40.74
21,0.01,1.00,0.15,40.73
21,-0.06,0.99,0.13,42.29
21,-0.06,0.99,0.11,44.03
21,-0.10,0.99,0.11,42.00
21,-0.08,1.01,0.09,42.00
21,-0.11,1.01,0.11,38.35
21,0.01,1.01,0.08,39.95
21,0.02,0.99,0.14,39.95
21,-0.04,1.00,0.13,41.14
21,-0.04,1.00,0.13,46.94
21,-0.10,0.99,0.13,46.96
21,-0.09,1.00,0.10,39.91
21,-0.09,1.02,0.11,39.65
21,-0.01,1.02,0.11,39.13
21,0.03,1.00,0.14,39.13
21,0.05,0.99,0.14,43.24
21,-0.02,0.99,0.14,42.71
21,-0.09,0.99,0.14,42.71
21,-0.10,0.99,0.11,41.07
21,-0.10,0.99,0.10,41.88
21,-0.03,1.01,0.10,42.07
21,0.04,1.01,0.13,42.07
21,0.04,1.05,0.14,42.64
21,-0.00,0.99,0.14,47.22
21,-0.07,1.00,0.14,47.22
21,-0.07,1.00,0.11,43.56
21,-0.10,1.00,0.10,46.21
21,-0.05,1.01,0.10,46.21
21,-0.04,1.01,0.11,41.10
21,0.02,1.01,0.13,40.44
21,0.02,0.99,0.13,40.44
21,-0.06,0.99,0.14,41.63
21,-0.06,0.99,0.12,37.63
21,-0.11,0.99,0.12,38.22
21,-0.07,1.01,0.09,38.22
21,-0.07,1.01,0.11,41.12
21,0.01,1.01,0.11,38.84
21,0.02,0.99,0.13,38.84
21,0.02,0.99,0.14,38.28
21,-0.04,0.99,0.18,42.37
21,-0.10,0.98,0.12,42.37
21,-0.09,1.01,0.10,39.19
21,-0.09,1.01,0.11,43.14
21,-0.01,1.00,0.11,43.02
21,0.03,1.00,0.14,45.37
21,0.03,1.05,0.13,46.03
21,-0.03,0.99,0.13,43.66
21,-0.10,1.00,0.13,43.66
21,-0.10,1.00,0.11,39.38
21,-0.11,1.00,0.11,40.85
21,-0.03,1.01,0.11,40.85
21,-0.03,1.01,0.13,40.57
21,0.03,1.01,0.14,43.23
21,0.00,0.99,0.14,43.23
21,-0.08,1.00,0.13,40.71
21,-0.08,1.06,0.09,47.21
21,-0.10,0.99,0.09,47.53
21,-0.04,1.02,0.09,47.53
21,-0.04,1.01,0.12,41.69
21,0.02,1.01,0.12,39.44
21,0.01,1.00,0.14,39.44
21,0.06,0.99,0.13,44.61
21,-0.06,0.99,0.18,37.57
21,-0.11,0.99,0.12,37.57
21,-0.07,1.01,0.11,40.23
21,-0.07,1.01,0.12,44.28
21,0.02,1.00,0.12,43.89
21,0.02,1.00,0.14,40.75
21,0.02,1.00,0.13,44.93
21,-0.04,1.00,0.13,44.66
21,-0.11,1.00,0.12,44.66
21,-0.08,1.01,0.11,40.19
21,-0.08,1.01,0.12,40.52
21,-0.01,1.01,0.12,40.52
21,0.03,1.00,0.14,43.31
21,0.03,1.00,0.14,39.71
21,-0.02,0.99,0.14,39.71
21,-0.10,0.99,0.12,42.55
21,-0.10,1.00,0.10,41.37
21,-0.09,1.00,0.10,41.12
21,-0.03,1.02,0.10,40.34
21,-0.03,1.00,0.12,42.52
21,0.02,1.00,0.09,43.19
21,0.00,0.99,0.15,43.19
21,0.04,0.99,0.12,47.45
21,-0.08,0.99,0.10,40.46
21,-0.09,1.00,0.10,40.46
21,-0.04,1.01,0.10,41.54
21,-0.04,1.01,0.13,43.91
21,0.02,1.01,0.13,44.16
21,0.01,0.99,0.15,41.03
21,0.01,0.99,0.13,47.49
21,-0.06,0.99,0.13,44.44
21,-0.10,0.99,0.10,44.44
21,-0.12,1.01,0.10,40.78
21,-0.05,1.01,0.11,44.20
21,0.01,1.01,0.11,44.20
21,0.02,1.00,0.14,40.20
21,0.02,1.00,0.14,43.51
21,-0.05,0.99,0.14,43.27
21,-0.11,0.99,0.11,41.71
21,-0.11,0.94,0.10,42.42
21,-0.08,1.00,0.10,46.52
21,0.00,1.01,0.12,46.52
21,0.00,0.99,0.13,44.45
21,0.03,0.99,0.14,42.03
21,-0.03,0.99,0.14,42.03
21,-0.10,0.98,0.11,41.92
21,-0.10,0.98,0.10,37.26
21,-0.08,1.00,0.10,37.26
21,-0.02,1.02,0.10,39.80
21,-0.02,1.01,0.13,43.22
21,0.03,1.01,0.13,43.73
21,-0.01,0.99,0.14,42.95
21,-0.01,0.99,0.13,40.34
21,-0.09,0.99,0.13,44.00
21,-0.10,1.00,0.11,44.00
21,-0.09,1.01,0.10,45.67
21,-0.03,1.01,0.07,37.61
21,0.02,1.00,0.13,37.61
21,0.01,0.99,0.15,38.20
21,0.01,0.99,0.12,39.14
22,-0.11,0.99,0.12,45.36
22,-0.11,0.94,0.10,39.96
22,-0.07,1.00,0.10,40.42
22,0.01,1.01,0.10,45.90
22,0.01,1.00,0.13,39.30
22,0.03,1.00,0.13,42.25
22,-0.04,0.99,0.13,42.25
22,-0.04,0.99,0.12,45.63
22,-0.10,0.99,0.09,43.02
22,-0.08,1.00,0.09,43.02
22,-0.01,1.02,0.11,45.34
22,-0.01,1.02,0.13,42.55
22,0.02,1.00,0.13,42.93
22,-0.02,0.99,0.15,41.36
22,-0.02,0.99,0.12,39.08
22,-0.10,0.99,0.12,42.19
22,-0.10,0.99,0.10,42.19
22,-0.10,1.01,0.10,40.36
22,-0.03,1.01,0.06,43.99
22,0.03,1.01,0.13,43.99
22,-0.00,0.99,0.15,42.04
22,-0.00,0.99,0.12,45.18
22,-0.09,0.99,0.12,45.18
22,-0.10,1.00,0.11,42.60
22,-0.10,1.01,0.10,38.55
22,-0.05,1.01,0.10,38.82
22,0.03,1.01,0.12,43.52
22,0.03,0.99,0.14,43.45
22,0.02,0.99,0.14,38.16
22,-0.06,0.99,0.13,38.16
22,-0.04,1.00,0.11,38.95
22,-0.10,1.00,0.09,42.89
22,-0.07,1.01,0.09,42.89
22,0.00,1.01,0.11,40.05
22,0.00,1.05,0.13,43.86
22,0.02,0.99,0.13,43.83
22,-0.04,1.00,0.15,48.53
22,-0.04,0.99,0.11,43.62
22,-0.10,0.99,0.11,38.16
22,-0.08,1.01,0.11,38.16
22,-0.07,1.01,0.12,42.80
22,-0.01,1.01,0.12,40.45
22,0.03,1.01,0.12,40.45
22,-0.03,0.99,0.15,42.25
22,-0.03,0.99,0.12,39.57
22,-0.09,0.99,0.12,39.45
22,-0.10,1.00,0.10,41.80
22,-0.10,1.01,0.10,41.50
22,-0.02,1.01,0.10,40.53
22,0.02,1.00,0.14,40.53
22,0.02,0.99,0.15,44.57
22,-0.01,0.99,0.13,46.34
22,-0.08,1.00,0.13,46.34
22,-0.10,1.00,0.10,38.95
22,-0.10,1.00,0.10,46.17
22,-0.04,1.01,0.10,46.17
22,0.02,1.01,0.12,41.62
22,0.02,1.06,0.14,42.40
22,0.01,0.99,0.14,42.80
22,-0.07,0.99,0.13,43.59
22,-0.07,0.99,0.11,41.65
22,-0.11,0.99,0.11,41.68
22,-0.06,1.01,0.10,41.68
22,-0.05,1.01,0.11,47.22
22,0.02,1.01,0.08,44.57
22,0.02,1.00,0.14,44.57
22,-0.05,0.99,0.13,39.00
22,-0.05,0.99,0.12,44.11
22,-0.11,0.98,0.12,44.52
22,-0.08,1.01,0.10,43.74
22,-0.08,1.01,0.11,42.15
22,-0.01,1.01,0.11,40.32
22,0.03,1.00,0.15,40.32
22,0.03,0.99,0.14,42.48
22,-0.03,0.99,0.18,42.00
22,-0.09,0.99,0.12,42.00
22,-0.10,1.00,0.11,40.13
22,-0.10,1.00,0.10,41.11
22,-0.02,1.01,0.10,41.11
22,0.03,1.01,0.13,41.24
22,0.03,1.05,0.13,44.96
22,-0.01,0.99,0.13,45.08
22,-0.08,0.99,0.12,43.51
22,-0.08,0.99,0.10,45.78
22,-0.10,0.99,0.10,44.30
22,-0.04,1.01,0.09,44.30
22,-0.04,1.01,0.12,42.08
22,0.03,1.01,0.14,39.34
22,0.01,1.00,0.14,39.34
22,-0.07,0.99,0.13,38.01
22,-0.07,0.99,0.11,47.68
22,-0.10,0.99,0.11,47.08
22,-0.05,1.00,0.10,40.03
22,-0.05,1.01,0.13,44.40
22,0.01,1.01,0.13,37.33
22,0.01,0.99,0.15,37.33
22,0.01,0.99,0.14,42.94
22,-0.06,0.99,0.18,45.01
22,-0.10,0.99,0.11,45.01
22,-0.08,1.00,0.10,44.02
22,-0.08,1.00,0.10,42.78
22,-0.01,1.01,0.10,42.78
22,0.03,1.00,0.14,42.20
22,0.03,0.99,0.14,39.78
22,-0.03,0.99,0.14,41.61
22,-0.10,0.99,0.12,41.61
22,-0.10,1.00,0.10,42.21
22,-0.09,1.00,0.10,44.42
22,-0.02,1.01,0.10,44.42
22,-0.03,1.00,0.13,44.35
22,0.03,1.00,0.15,42.65
22,-0.02,0.99,0.15,42.65
22,-0.09,0.99,0.12,41.21
22,-0.09,0.94,0.10,44.40
22,-0.10,1.00,0.10,43.98
22,-0.04,1.00,0.10,46.33
22,-0.04,1.01,0.11,42.75
22,0.03,1.01,0.11,43.93
22,0.01,0.99,0.14,43.93
22,0.06,0.99,0.13,42.68
22,-0.07,0.99,0.16,37.29
22,-0.10,1.00,0.10,37.29
22,-0.06,1.01,0.11,36.89
22,-0.06,1.01,0.12,42.55
22,0.02,1.01,0.12,42.34
22,0.02,0.99,0.14,43.13
22,0.02,0.99,0.14,44.10
22,-0.06,0.99,0.14,43.61
22,-0.10,0.99,0.11,43.61
22,-0.10,1.00,0.09,42.48
22,-0.07,1.00,0.11,44.97
22,0.00,1.01,0.11,44.97
22,0.03,1.00,0.14,41.16
22,0.03,1.00,0.13,46.33
