seconds, accX, accY, accZ, temp
8,-0.04,0.95,0.12,44.37
8,0.00,0.95,0.12,44.31
8,-0.07,1.03,0.15,44.31
8,-0.12,0.98,0.11,42.78
8,0.00,0.98,0.12,41.50
8,-0.02,0.97,0.12,41.50
8,-0.06,1.07,0.13,44.45
8,-0.06,1.07,0.11,44.40
8,-0.01,0.95,0.11,44.14
8,-0.05,1.01,0.15,48.84
8,-0.05,1.03,0.11,39.80
8,-0.02,1.03,0.11,50.43
8,-0.01,0.96,0.11,50.43
8,-0.01,1.05,0.15,38.03
8,-0.08,1.05,0.18,47.03
8,0.01,0.96,0.11,47.03
8,-0.02,0.98,0.13,37.50
8,-0.02,0.98,0.12,44.91
8,-0.04,1.06,0.12,44.91
8,-0.01,0.95,0.12,47.66
8,-0.01,0.96,0.15,42.33
8,-0.06,1.02,0.15,42.27
8,-0.00,1.00,0.10,42.27
8,-0.00,0.97,0.11,41.10
8,-0.02,0.97,0.11,40.86
8,-0.07,1.05,0.15,40.86
8,-0.06,0.95,0.11,44.23
8,-0.00,0.95,0.14,38.96
8,-0.03,1.00,0.14,38.96
8,-0.03,1.03,0.11,40.07
8,-0.03,1.03,0.13,38.38
8,-0.01,0.97,0.13,38.76
8,-0.07,1.04,0.15,46.59
8,-0.07,0.97,0.11,40.18
8,-0.00,0.97,0.11,39.80
8,-0.02,0.98,0.12,39.80
8,-0.05,1.06,0.13,38.18
8,-0.05,1.06,0.18,43.94
9,0.03,0.99,0.14,46.09
9,-0.04,0.99,0.16,46.67
9,-0.03,1.05,0.10,46.67
9,-0.00,0.96,0.11,49.77
9,-0.00,0.96,0.15,46.46
9,-0.07,1.04,0.15,46.66
9,0.00,0.99,0.10,43.53
9,0.00,0.99,0.12,45.62
9,-0.01,0.99,0.12,47.53
9,-0.06,1.06,0.13,47.53
9,-0.00,0.96,0.10,39.89
9,-0.00,0.96,0.08,37.38
9,-0.05,1.00,0.14,37.38
9,-0.02,1.01,0.11,36.61
9,-0.02,1.01,0.10,42.34
9,-0.01,0.96,0.10,42.34
9,-0.08,1.05,0.16,41.66
9,-0.08,1.03,0.11,40.49
9,-0.00,0.96,0.11,47.62
9,-0.03,0.99,0.13,47.62
9,-0.03,1.05,0.12,46.68
9,-0.04,1.05,0.10,46.77
9,-0.01,0.96,0.10,46.77
9,-0.00,1.02,0.15,45.02
9,-0.07,1.02,0.12,38.30
9,0.00,1.00,0.12,38.30
9,-0.00,0.97,0.12,49.22
9,-0.00,1.00,0.14,50.96
9,-0.06,1.06,0.14,51.63
9,-0.01,0.95,0.12,46.15
9,-0.01,1.00,0.14,44.90
9,-0.04,1.00,0.14,44.54
9,-0.03,1.03,0.11,44.54
9,-0.01,0.97,0.12,43.90
9,-0.01,0.97,0.09,38.37
9,-0.08,1.05,0.15,38.37
9,0.00,0.98,0.10,51.98
9,0.00,0.98,0.13,47.32
9,-0.02,0.98,0.13,47.63
9,-0.06,1.06,0.12,42.93
9,-0.06,0.94,0.12,37.20
9,-0.01,0.94,0.12,42.93
9,-0.07,1.02,0.14,42.93
9,-0.07,1.00,0.09,50.40
9,-0.00,1.00,0.12,45.29
9,-0.01,0.98,0.12,45.29
9,-0.08,1.05,0.14,47.77
9,-0.08,1.05,0.11,43.43
9,-0.01,0.95,0.11,43.45
9,-0.03,0.99,0.13,43.45
9,-0.03,0.98,0.11,52.41
9,-0.04,1.04,0.11,43.07
9,0.00,0.97,0.11,43.07
9,0.00,1.04,0.15,42.76
9,-0.08,1.04,0.18,47.86
9,-0.00,0.97,0.11,47.86
9,-0.01,0.99,0.12,44.10
9,-0.01,0.99,0.13,45.17
9,-0.06,1.06,0.13,45.17
9,-0.01,0.95,0.12,48.80
9,-0.01,0.95,0.15,36.22
9,-0.05,1.02,0.15,36.21
9,-0.02,1.01,0.11,41.70
9,-0.02,0.97,0.12,43.75
9,-0.01,0.97,0.09,41.56
9,-0.07,1.06,0.15,41.56
9,-0.12,0.96,0.10,42.33
9,0.00,0.96,0.13,38.74
9,-0.03,0.99,0.13,38.74
9,-0.03,1.05,0.12,42.65
9,-0.03,1.02,0.11,45.78
9,-0.01,0.96,0.11,46.05
9,-0.08,1.03,0.16,47.61
9,-0.08,0.98,0.12,51.34
9,-0.01,0.98,0.12,43.76
9,-0.02,0.98,0.12,43.76
9,-0.06,1.06,0.14,40.21
9,-0.06,1.06,0.17,46.82
9,-0.00,0.95,0.11,46.82
9,-0.05,1.01,0.15,41.66
9,-0.05,1.02,0.10,42.26
9,-0.03,1.02,0.10,42.99
9,-0.01,0.97,0.12,41.42
9,-0.01,1.04,0.15,37.84
9,-0.08,1.04,0.15,43.57
9,-0.00,0.96,0.11,43.57
9,-0.03,0.99,0.13,39.83
9,-0.03,0.99,0.13,47.81
9,-0.06,1.05,0.13,47.81
9,-0.01,0.96,0.12,51.39
9,-0.01,0.96,0.16,41.17
9,-0.07,1.02,0.16,40.94
9,-0.00,1.00,0.11,43.29
9,-0.00,0.97,0.12,40.20
9,-0.01,0.97,0.12,49.28
9,-0.07,1.05,0.14,49.28
9,-0.07,0.95,0.10,39.03
9,-0.00,0.95,0.08,34.21
9,-0.06,1.00,0.14,34.21
9,-0.04,1.03,0.12,41.12
9,-0.04,1.03,0.11,43.94
9,-0.02,0.96,0.11,43.94
9,-0.08,1.05,0.15,48.19
9,-0.08,1.03,0.11,47.80
9,0.00,0.97,0.11,48.10
9,-0.02,0.99,0.12,47.32
9,-0.02,1.06,0.13,44.32
9,-0.05,1.06,0.13,41.59
9,-0.02,0.96,0.11,41.59
9,-0.06,1.02,0.16,45.20
9,-0.06,1.02,0.10,46.77
9,-0.01,1.01,0.10,46.77
9,-0.01,0.98,0.12,47.52
9,-0.01,0.99,0.14,44.98
9,-0.08,1.05,0.14,44.60
9,-0.01,0.95,0.11,41.47
9,-0.01,1.00,0.13,42.96
9,-0.03,1.00,0.13,45.67
9,-0.03,1.05,0.11,45.67
9,-0.01,0.96,0.11,44.95
9,-0.01,0.96,0.09,44.79
9,-0.06,1.04,0.15,44.79
9,-0.00,0.98,0.10,40.49
9,-0.00,0.98,0.14,47.75
9,-0.01,0.98,0.14,47.90
9,-0.06,1.06,0.13,40.85
9,-0.06,0.94,0.12,39.10
9,-0.00,0.94,0.12,48.37
9,-0.05,1.01,0.14,48.37
9,-0.02,1.02,0.12,40.33
9,-0.02,1.02,0.11,42.01
9,-0.01,0.97,0.11,42.01
9,-0.08,1.05,0.15,46.16
9,-0.08,1.05,0.10,40.48
9,0.00,0.96,0.10,39.91
9,-0.03,0.98,0.14,45.39
9,-0.03,0.98,0.12,43.18
9,-0.03,1.05,0.12,40.10
9,-0.01,0.96,0.11,40.10
9,-0.01,1.03,0.16,44.95
9,-0.07,1.03,0.18,44.93
9,-0.01,0.99,0.12,44.93
9,-0.01,0.98,0.13,41.25
9,-0.01,0.98,0.13,42.80
9,-0.06,1.06,0.13,42.80
9,-0.00,0.95,0.11,47.77
9,-0.00,0.94,0.14,45.30
9,-0.05,1.00,0.14,44.94
9,-0.01,1.02,0.10,44.94
9,-0.01,0.96,0.11,39.34
9,0.00,0.96,0.11,43.59
9,-0.08,1.04,0.16,43.59
9,-0.07,0.97,0.12,41.77
9,-0.01,0.97,0.06,39.68
9,-0.03,0.98,0.13,39.68
9,-0.04,1.05,0.12,45.72
9,-0.04,1.02,0.11,45.90
9,-0.00,0.96,0.11,45.95
9,-0.06,1.02,0.16,49.08
9,-0.06,1.00,0.11,42.56
9,-0.02,1.00,0.11,42.16
9,-0.01,0.97,0.12,42.16
9,-0.00,1.06,0.14,42.40
9,-0.06,1.06,0.18,45.43
9,-0.01,0.96,0.12,45.43
9,-0.04,0.99,0.15,44.91
9,-0.04,0.99,0.11,38.86
9,-0.03,1.03,0.11,38.46
9,-0.01,0.95,0.11,38.46
9,-0.01,0.97,0.15,49.57
9,-0.08,1.03,0.15,45.00
9,0.00,0.98,0.12,45.00
9,0.00,0.99,0.12,40.60
9,-0.02,0.99,0.06,39.83
9,-0.05,1.05,0.13,39.83
9,-0.00,0.95,0.10,49.46
9,-0.00,0.95,0.15,45.44
9,-0.05,1.01,0.15,45.44
9,-0.01,1.01,0.11,41.66
9,-0.01,1.04,0.11,48.25
9,-0.01,0.97,0.11,48.83
9,-0.08,1.06,0.14,48.83
9,-0.08,0.96,0.12,48.10
9,-0.00,0.96,0.08,44.19
9,-0.03,1.00,0.14,44.19
9,-0.03,1.04,0.13,41.98
9,-0.03,1.04,0.11,46.13
9,-0.00,0.96,0.11,46.13
9,-0.07,1.03,0.15,46.51
9,-0.07,1.04,0.10,48.09
9,-0.00,0.98,0.10,48.21
9,-0.02,0.98,0.12,45.07
9,-0.02,1.06,0.13,40.67
9,-0.07,1.06,0.13,41.26
9,-0.01,0.96,0.11,41.26
9,-0.05,1.02,0.15,42.20
9,-0.05,1.02,0.17,46.66
9,-0.02,1.02,0.11,46.66
9,-0.00,0.97,0.11,49.71
9,-0.00,0.99,0.15,37.67
9,-0.07,1.05,0.15,37.89
9,0.01,0.95,0.10,39.46
9,0.01,0.98,0.14,45.52
9,-0.03,0.98,0.14,41.33
9,-0.05,1.05,0.11,41.33
9,-0.01,0.95,0.12,37.35
9,-0.01,0.95,0.09,47.86
9,-0.07,1.03,0.15,47.86
9,-0.01,1.00,0.10,46.19
9,-0.01,1.00,0.13,42.47
9,-0.00,0.98,0.13,42.23
9,-0.06,1.06,0.14,43.80
9,-0.06,1.08,0.12,41.14
9,-0.01,0.96,0.12,45.15
9,-0.04,1.01,0.13,45.15
9,-0.04,1.02,0.12,39.27
9,-0.02,1.02,0.11,44.39
9,0.00,0.96,0.11,44.39
9,-0.07,1.04,0.15,40.16
9,-0.07,1.04,0.10,42.18
9,-0.01,0.97,0.10,42.18
9,-0.02,0.99,0.12,41.28
9,-0.02,0.99,0.13,37.89
9,-0.05,1.05,0.13,37.75
9,-0.01,0.95,0.11,45.58
9,-0.01,1.02,0.14,41.99
9,-0.06,1.02,0.16,47.80
9,-0.01,1.00,0.10,47.80
9,-0.02,0.97,0.12,40.76
9,-0.02,0.97,0.14,47.55
9,-0.07,1.05,0.14,47.55
9,-0.01,0.95,0.11,40.98
10,-0.02,0.98,0.13,39.12
31,-0.04,1.00,0.13,44.51
31,-0.02,1.00,0.12,45.38
31,-0.02,1.00,0.07,41.70
31,-0.04,1.01,0.13,41.70
31,-0.03,1.00,0.11,44.42
31,-0.03,1.00,0.13,39.66
31,-0.03,1.00,0.13,39.41
31,-0.02,1.00,0.14,40.19
31,-0.02,1.01,0.13,48.56
31,-0.03,1.01,0.13,42.90
31,-0.03,1.00,0.13,42.90
31,-0.03,0.99,0.13,51.12
31,-0.03,0.99,0.18,42.20
31,-0.02,1.00,0.12,42.20
31,-0.03,1.00,0.13,36.65
31,-0.03,1.00,0.12,46.45
31,-0.03,1.00,0.12,46.45
31,-0.03,1.00,0.13,38.65
31,-0.03,1.06,0.12,41.76
31,-0.03,1.00,0.12,41.70
31,-0.02,1.00,0.12,41.70
31,-0.02,1.00,0.13,41.97
31,-0.03,1.00,0.13,42.00
31,-0.02,0.99,0.12,42.00
31,-0.03,0.99,0.12,44.78
31,-0.03,0.99,0.11,44.39
31,-0.03,1.01,0.11,44.39
31,-0.05,1.00,0.13,45.20
31,-0.05,0.95,0.13,44.06
31,-0.02,1.01,0.13,43.89
31,-0.03,1.00,0.13,41.54
31,-0.03,1.00,0.13,42.31
31,-0.03,1.00,0.13,42.61
31,-0.03,1.01,0.13,42.61
31,-0.03,0.99,0.12,45.14
31,-0.03,0.99,0.07,40.35
31,-0.03,1.01,0.13,40.35
31,-0.03,1.01,0.13,39.06
31,-0.03,1.01,0.13,42.14
31,-0.03,1.00,0.13,42.07
31,-0.03,1.00,0.13,44.42
31,-0.03,1.05,0.13,45.17
31,-0.04,0.99,0.13,40.08
31,-0.03,1.00,0.12,40.08
31,-0.03,1.01,0.13,42.87
31,-0.03,1.01,0.13,39.63
31,-0.02,1.00,0.13,39.63
31,-0.04,1.00,0.13,45.58
31,-0.04,1.00,0.13,48.62
31,-0.02,0.99,0.13,48.62
31,-0.03,1.00,0.12,41.43
31,-0.03,0.95,0.13,35.69
31,-0.04,1.01,0.13,35.76
31,-0.02,0.99,0.11,40.46
31,-0.02,1.01,0.12,49.43
31,-0.03,1.01,0.12,39.96
31,-0.03,1.00,0.12,39.96
31,-0.03,0.99,0.12,42.31
31,-0.03,0.99,0.07,39.16
31,-0.04,1.00,0.13,39.16
31,-0.03,1.00,0.13,41.94
31,-0.03,1.00,0.12,44.18
31,-0.03,1.01,0.12,44.52
31,-0.03,1.00,0.13,48.44
31,-0.03,1.06,0.12,42.14
31,-0.03,0.99,0.12,44.87
31,-0.03,1.00,0.12,44.87
31,-0.03,1.01,0.12,44.15
31,-0.03,1.01,0.12,45.49
31,-0.03,1.00,0.12,45.49
31,-0.02,1.00,0.13,41.83
31,-0.02,1.00,0.13,43.74
31,-0.02,1.00,0.13,43.74
31,-0.03,1.00,0.12,43.40
31,-0.03,0.94,0.13,47.27
31,-0.03,1.00,0.13,47.26
31,-0.02,1.00,0.12,48.05
31,-0.02,1.01,0.13,41.49
31,-0.03,1.01,0.13,43.26
31,-0.03,0.99,0.13,43.26
31,-0.03,1.00,0.12,49.14
31,-0.03,1.00,0.12,45.73
31,-0.03,1.00,0.12,45.73
31,-0.02,0.99,0.12,40.62
31,-0.02,0.94,0.12,37.09
31,-0.03,1.01,0.12,37.15
31,-0.03,1.01,0.13,52.03
31,-0.03,0.99,0.12,51.03
31,-0.03,0.99,0.12,43.02
31,-0.03,1.01,0.13,43.02
31,-0.03,0.99,0.14,42.01
31,-0.03,0.99,0.18,45.76
31,-0.03,1.00,0.12,45.76
31,-0.03,1.01,0.12,38.86
31,-0.03,1.01,0.13,41.12
31,-0.02,0.99,0.13,41.12
31,-0.03,1.01,0.14,39.34
31,-0.03,1.00,0.13,39.51
31,-0.03,1.00,0.13,50.28
31,-0.02,1.01,0.12,50.28
31,-0.02,1.00,0.12,47.37
31,-0.03,1.00,0.12,44.23
31,-0.02,0.99,0.12,44.23
31,-0.02,1.00,0.13,43.05
31,-0.02,1.00,0.13,42.61
31,-0.03,1.00,0.13,42.61
31,-0.03,0.99,0.13,41.86
31,-0.03,0.95,0.13,41.52
31,-0.04,1.01,0.13,41.88
31,-0.03,1.00,0.13,37.18
31,-0.03,0.99,0.12,38.76
31,-0.02,0.99,0.12,42.15
31,-0.03,1.00,0.11,42.15
31,-0.02,0.99,0.12,43.90
31,-0.02,0.99,0.06,44.48
31,-0.03,1.01,0.13,44.48
31,-0.03,1.00,0.13,42.40
31,-0.03,1.00,0.12,45.19
31,-0.02,1.00,0.12,45.32
31,-0.03,1.01,0.12,42.18
31,-0.03,1.06,0.13,44.40
31,-0.03,0.99,0.13,39.84
31,-0.03,1.00,0.12,39.84
31,-0.03,1.00,0.13,41.87
31,-0.02,1.00,0.13,39.82
31,-0.03,1.00,0.13,39.82
31,-0.03,1.00,0.13,39.45
31,-0.03,1.00,0.12,41.87
31,-0.04,1.00,0.12,41.87
31,-0.03,1.00,0.13,43.21
31,-0.03,0.95,0.12,44.38
31,-0.03,1.01,0.12,44.25
31,-0.03,1.00,0.11,45.82
31,-0.03,1.00,0.12,41.67
31,-0.03,1.00,0.12,40.59
31,-0.03,1.01,0.13,40.59
31,-0.03,1.00,0.14,39.10
31,-0.03,1.00,0.12,43.01
31,-0.04,1.00,0.12,43.01
31,-0.03,1.00,0.12,45.06
31,-0.03,0.94,0.14,43.50
31,-0.03,1.00,0.14,43.31
31,-0.03,1.01,0.13,41.74
31,-0.03,1.00,0.12,38.77
31,-0.02,1.00,0.12,40.97
31,-0.03,1.01,0.12,40.97
31,-0.02,1.00,0.11,46.44
31,-0.02,1.00,0.12,47.00
31,-0.03,1.00,0.12,47.00
31,-0.04,1.00,0.13,37.77
31,-0.04,1.00,0.13,52.20
31,-0.02,1.00,0.13,52.20
31,-0.03,1.00,0.14,47.62
31,-0.03,0.94,0.12,47.66
31,-0.03,1.00,0.12,39.82
31,-0.03,0.99,0.11,39.82
31,-0.03,1.01,0.13,48.39
31,-0.05,1.01,0.13,51.39
31,-0.03,1.00,0.13,51.39
31,-0.03,1.00,0.13,46.54
31,-0.03,1.00,0.11,49.68
31,-0.03,1.01,0.11,49.68
31,-0.03,1.00,0.14,42.49
31,-0.03,0.94,0.13,44.46
31,-0.03,1.00,0.13,44.05
31,-0.02,1.00,0.12,42.48
31,-0.02,1.00,0.13,44.81
31,-0.03,1.00,0.13,42.17
31,-0.04,1.01,0.13,42.17
31,-0.02,1.00,0.12,44.73
31,-0.02,1.00,0.12,40.69
31,-0.03,1.00,0.12,40.69
31,-0.03,1.00,0.12,37.10
31,-0.03,1.00,0.13,41.44
31,-0.03,1.00,0.13,41.24
31,-0.04,1.01,0.13,39.67
31,-0.04,1.06,0.12,40.62
31,-0.03,1.00,0.12,44.12
31,-0.04,0.99,0.13,44.12
32,-0.03,1.01,0.12,47.20
32,-0.03,1.00,0.12,47.20
32,-0.04,1.00,0.13,48.55
32,-0.04,1.00,0.13,45.29
32,-0.03,1.00,0.13,45.29
32,-0.03,1.00,0.12,44.34
32,-0.03,1.00,0.12,45.68
32,-0.03,1.00,0.12,45.68
32,-0.03,1.00,0.13,47.69
32,-0.03,1.06,0.13,41.75
32,-0.03,1.00,0.13,41.93
32,-0.03,1.02,0.12,45.85
32,-0.03,1.00,0.13,44.28
32,-0.03,1.00,0.13,41.26
32,-0.03,1.01,0.13,41.26
32,-0.03,1.00,0.14,43.17
32,-0.03,1.00,0.14,41.50
32,-0.02,0.99,0.14,41.50
32,-0.03,1.01,0.13,44.60
32,-0.03,1.01,0.13,41.89
32,-0.02,1.01,0.13,41.58
32,-0.03,1.00,0.13,43.15
32,-0.03,1.01,0.12,42.80
32,-0.03,1.01,0.12,39.10
32,-0.04,0.99,0.13,39.10
32,-0.03,1.02,0.12,38.68
32,-0.03,1.02,0.11,40.27
32,-0.03,1.00,0.11,40.27
32,-0.03,1.01,0.12,44.26
32,-0.03,1.01,0.12,47.58
32,-0.03,1.01,0.12,47.48
32,-0.02,0.99,0.12,39.65
32,-0.02,1.00,0.13,42.93
32,-0.02,1.00,0.13,51.01
32,-0.04,1.00,0.12,51.01
32,-0.04,1.00,0.13,46.69
32,-0.02,1.00,0.13,43.95
32,-0.03,1.01,0.13,43.95
32,-0.03,1.00,0.13,44.05
32,-0.03,1.00,0.13,39.87
32,-0.03,1.00,0.13,39.87
32,-0.03,1.00,0.14,45.47
32,-0.03,1.06,0.13,43.91
32,-0.02,1.00,0.13,43.85
32,-0.03,1.00,0.12,43.06
32,-0.03,0.99,0.12,40.83
32,-0.03,0.99,0.12,40.82
32,-0.03,1.00,0.13,40.82
32,-0.04,1.02,0.12,37.06
32,-0.04,1.02,0.12,40.92
32,-0.02,1.00,0.12,40.92
32,-0.03,1.01,0.12,41.26
32,-0.03,1.01,0.12,43.30
32,-0.03,1.00,0.12,43.75
32,-0.03,1.00,0.13,39.05
32,-0.03,1.01,0.12,42.18
32,-0.04,1.01,0.12,41.21
32,-0.03,1.00,0.11,41.21
32,-0.04,1.00,0.13,40.46
32,-0.04,1.00,0.13,45.35
32,-0.03,1.01,0.13,45.35
32,-0.02,0.99,0.13,42.42
32,-0.02,0.99,0.13,42.25
32,-0.03,1.01,0.13,42.25
32,-0.03,1.00,0.12,45.30
32,-0.03,0.99,0.12,42.59
32,-0.03,0.99,0.12,42.66
32,-0.03,1.00,0.13,41.09
32,-0.03,1.00,0.12,43.69
32,-0.02,1.00,0.12,50.42
32,-0.02,1.00,0.13,50.42
32,-0.04,1.00,0.14,50.28
32,-0.04,1.00,0.13,38.23
32,-0.02,1.00,0.13,38.23
32,-0.03,1.00,0.13,46.25
32,-0.03,1.00,0.11,40.28
32,-0.03,1.00,0.11,40.37
32,-0.03,1.00,0.12,52.12
32,-0.03,1.01,0.13,45.13
32,-0.03,1.01,0.13,46.63
32,-0.03,1.00,0.13,46.63
32,-0.03,1.02,0.12,51.06
32,-0.03,1.02,0.06,43.53
32,-0.04,1.00,0.13,43.53
32,-0.02,1.00,0.13,46.59
32,-0.02,1.00,0.13,41.47
32,-0.04,1.00,0.13,41.55
32,-0.02,0.99,0.13,46.25
32,-0.02,1.00,0.13,44.40
32,-0.03,1.00,0.13,42.06
32,-0.04,1.00,0.12,42.06
32,-0.04,1.00,0.12,50.19
32,-0.03,1.00,0.12,49.10
32,-0.03,1.00,0.12,49.10
32,-0.03,1.00,0.12,41.40
32,-0.03,1.00,0.12,45.83
32,-0.02,1.00,0.12,45.83
32,-0.04,1.01,0.13,45.50
32,-0.04,1.05,0.12,50.59
32,-0.03,0.99,0.12,50.43
32,-0.03,1.00,0.12,36.33
32,-0.03,1.00,0.12,36.46
32,-0.03,1.00,0.12,46.23
32,-0.03,0.99,0.13,46.23
32,-0.03,1.01,0.14,37.09
32,-0.03,1.01,0.13,41.92
32,-0.03,1.00,0.13,41.92
32,-0.03,1.00,0.13,42.18
32,-0.03,1.00,0.12,48.38
32,-0.03,1.00,0.12,48.44
32,-0.03,1.00,0.13,42.17
32,-0.03,1.01,0.14,50.97
32,-0.04,1.01,0.14,39.05
32,-0.03,1.00,0.12,39.05
32,-0.03,1.00,0.12,44.42
32,-0.03,1.00,0.12,40.96
32,-0.03,1.01,0.12,40.96
32,-0.02,1.00,0.13,42.48
32,-0.02,1.00,0.13,44.05
32,-0.04,1.00,0.13,44.05
32,-0.03,1.00,0.12,48.94
32,-0.03,1.00,0.11,44.44
32,-0.03,1.00,0.11,44.24
32,-0.03,1.01,0.12,35.62
32,-0.03,0.99,0.13,42.27
32,-0.03,0.99,0.13,40.21
32,-0.03,0.99,0.12,40.21
32,-0.03,1.01,0.12,42.87
32,-0.03,1.01,0.12,40.61
32,-0.02,1.00,0.12,40.61
32,-0.03,1.00,0.13,51.14
32,-0.03,1.00,0.12,42.93
32,-0.03,1.00,0.12,42.77
32,-0.03,0.99,0.12,46.68
32,-0.03,1.00,0.13,40.71
32,-0.04,1.00,0.13,40.28
32,-0.02,1.00,0.13,40.28
32,-0.03,1.01,0.13,46.53
32,-0.03,1.01,0.18,41.44
32,-0.02,1.01,0.12,41.44
32,-0.02,1.01,0.12,39.63
32,-0.02,1.01,0.13,49.20
32,-0.03,1.00,0.13,49.19
32,-0.03,1.00,0.13,47.63
32,-0.03,1.06,0.12,43.13
32,-0.03,1.00,0.12,44.55
32,-0.03,1.00,0.13,44.55
32,-0.03,0.99,0.13,38.63
32,-0.03,0.99,0.13,42.34
32,-0.03,1.01,0.13,42.34
32,-0.03,1.00,0.13,45.30
32,-0.03,1.00,0.13,37.00
32,-0.03,1.00,0.13,37.00
32,-0.03,1.00,0.13,44.28
32,-0.03,0.99,0.13,45.56
32,-0.03,0.99,0.13,45.49
32,-0.03,1.00,0.12,43.93
32,-0.03,1.01,0.12,39.28
32,-0.03,1.01,0.12,41.65
32,-0.03,1.00,0.13,41.65
32,-0.03,1.01,0.13,44.83
32,-0.03,1.01,0.13,45.43
32,-0.03,1.00,0.13,45.43
32,-0.03,0.99,0.12,44.62
32,-0.03,0.99,0.13,38.88
32,-0.03,1.00,0.13,38.91
32,-0.03,0.99,0.12,40.48
32,-0.03,0.94,0.13,48.04
32,-0.03,1.01,0.13,43.96
32,-0.03,1.00,0.13,43.96
32,-0.02,0.99,0.12,38.32
32,-0.02,0.99,0.12,39.31
32,-0.04,1.00,0.12,39.31
32,-0.03,1.00,0.13,40.14
32,-0.03,1.00,0.12,40.74
32,-0.03,1.00,0.12,40.74
32,-0.04,1.00,0.13,38.14
32,-0.04,1.05,0.14,41.64
32,-0.03,0.98,0.14,41.53
32,-0.03,1.00,0.12,43.88
32,-0.03,0.99,0.13,38.69
32,-0.03,0.99,0.13,39.47
32,-0.02,1.00,0.12,39.47
32,-0.03,1.01,0.12,47.93
32,-0.03,1.01,0.12,41.62
32,-0.03,0.99,0.12,41.62
32,-0.03,1.00,0.14,48.81
32,-0.03,1.06,0.12,38.23
32,-0.03,1.00,0.12,38.26
32,-0.02,1.01,0.12,46.10
32,-0.02,1.00,0.12,43.88
32,-0.03,1.00,0.12,42.42
32,-0.03,1.00,0.12,42.42
32,-0.03,1.00,0.13,42.80
32,-0.03,1.00,0.18,44.69
32,-0.03,1.00,0.12,44.69
32,-0.03,1.00,0.13,41.17
32,-0.03,1.00,0.14,39.38
32,-0.02,1.00,0.14,39.38
32,-0.02,1.00,0.12,40.17
32,-0.02,1.00,0.12,46.63
32,-0.02,1.00,0.12,44.33
32,-0.04,1.00,0.13,44.33
32,-0.04,0.99,0.12,40.13
32,-0.03,0.99,0.07,42.10
32,-0.03,1.00,0.13,42.10
32,-0.04,1.00,0.14,42.20
32,-0.04,1.00,0.14,47.06
32,-0.03,1.00,0.14,47.06
32,-0.03,1.00,0.13,45.29
32,-0.03,1.06,0.13,39.01
32,-0.02,1.00,0.13,38.63
32,-0.03,1.00,0.13,44.11
32,-0.03,1.01,0.12,46.12
32,-0.03,1.01,0.12,43.19
32,-0.02,1.00,0.12,43.19
32,-0.03,1.00,0.13,42.58
32,-0.03,1.00,0.13,40.44
32,-0.03,1.01,0.13,40.44
32,-0.03,1.00,0.13,37.29
32,-0.03,1.00,0.12,46.82
32,-0.04,1.00,0.12,46.28
32,-0.03,1.00,0.13,47.85
32,-0.03,0.94,0.13,44.59
32,-0.03,1.00,0.13,47.42
32,-0.04,0.99,0.12,47.42
32,-0.03,1.00,0.12,44.70
32,-0.03,1.00,0.07,41.23
32,-0.03,1.00,0.13,41.23
32,-0.03,1.00,0.13,41.94
32,-0.03,1.00,0.14,40.19
32,-0.03,1.00,0.14,40.19
32,-0.03,1.01,0.13,41.34
33,-0.03,0.99,0.12,46.89
33,-0.03,1.00,0.13,42.00
33,-0.03,1.01,0.12,42.13
33,-0.02,1.01,0.12,48.87
33,-0.04,0.99,0.12,48.87
33,-0.04,1.00,0.13,44.49
33,-0.04,1.00,0.13,44.24
33,-0.02,1.00,0.13,44.24
33,-0.04,1.00,0.12,38.56
33,-0.04,1.00,0.13,36.07
33,-0.03,1.00,0.13,36.07
33,-0.03,1.00,0.13,40.45
33,-0.03,0.94,0.13,39.71
33,-0.03,1.00,0.13,39.56
33,-0.03,1.01,0.13,46.61
33,-0.03,1.00,0.12,44.87
33,-0.02,1.00,0.12,43.55
33,-0.03,1.01,0.13,43.55
33,-0.03,1.00,0.13,46.43
33,-0.03,1.00,0.18,46.41
33,-0.03,1.00,0.12,46.41
33,-0.04,1.01,0.12,42.78
33,-0.04,1.01,0.14,44.80
33,-0.02,0.99,0.14,44.78
33,-0.05,1.01,0.12,42.43
33,-0.05,1.00,0.12,44.17
33,-0.04,1.00,0.12,38.73
33,-0.02,1.00,0.12,38.73
33,-0.04,1.00,0.13,36.70
33,-0.04,1.00,0.18,40.99
33,-0.03,1.00,0.12,40.99
33,-0.02,1.00,0.12,41.67
33,-0.02,1.00,0.12,38.59
33,-0.02,0.99,0.12,38.59
33,-0.02,1.00,0.12,49.20
33,-0.02,1.00,0.12,52.04
33,-0.02,1.00,0.12,52.01
33,-0.02,1.00,0.13,43.39
33,-0.02,1.00,0.13,45.54
33,-0.02,1.00,0.13,46.64
33,-0.05,1.00,0.11,46.64
33,-0.03,1.00,0.12,47.07
33,-0.03,1.00,0.06,42.82
33,-0.05,1.00,0.13,42.82
33,-0.04,1.00,0.13,49.10
33,-0.04,0.99,0.13,48.49
33,-0.03,0.99,0.13,48.25
33,-0.04,1.01,0.15,42.76
33,-0.04,1.00,0.12,43.19
33,-0.03,1.00,0.12,42.84
33,-0.02,0.97,0.16,42.28
33,-0.02,0.99,0.16,42.28
33,-0.02,0.99,0.17,40.18
33,-0.02,1.00,0.16,39.28
33,-0.06,1.00,0.16,38.03
33,-0.08,1.01,0.15,38.03
33,-0.10,0.99,0.11,39.36
33,-0.10,1.01,0.10,41.34
33,-0.00,1.01,0.10,42.60
33,-0.04,1.01,0.11,42.60
33,-0.04,1.01,0.13,43.09
33,-0.04,1.01,0.13,42.47
33,-0.03,1.01,0.13,42.47
33,0.01,1.00,0.11,45.41
33,0.01,1.00,0.12,43.56
33,-0.04,1.01,0.12,43.56
33,-0.03,1.00,0.13,41.98
33,-0.03,1.06,0.13,39.02
33,-0.02,1.00,0.13,48.12
33,-0.03,1.01,0.14,48.12
33,-0.03,0.99,0.12,41.90
33,-0.05,0.99,0.12,43.13
33,-0.03,1.01,0.12,43.13
33,-0.03,1.00,0.14,43.56
33,-0.03,1.00,0.13,42.50
33,-0.03,1.00,0.13,42.50
33,-0.02,1.00,0.11,46.15
33,-0.02,1.06,0.12,39.89
33,-0.02,1.00,0.12,40.03
33,-0.04,1.00,0.12,39.25
33,-0.04,1.01,0.12,43.62
33,-0.03,1.01,0.12,45.31
33,-0.03,1.00,0.11,45.31
33,-0.04,1.00,0.14,41.93
33,-0.04,1.00,0.17,38.32
33,-0.04,1.01,0.11,38.32
33,-0.04,0.99,0.13,48.76
33,-0.04,0.99,0.13,43.33
33,-0.02,1.01,0.13,43.27
33,-0.03,0.99,0.13,45.62
33,-0.03,1.00,0.15,41.88
33,-0.03,1.00,0.15,45.76
33,-0.03,1.00,0.13,45.76
33,-0.03,0.98,0.12,49.83
33,-0.02,0.98,0.06,46.61
33,-0.04,1.01,0.13,46.61
33,-0.03,0.99,0.13,50.14
33,-0.03,0.99,0.13,43.35
33,-0.03,1.00,0.13,43.35
33,-0.04,1.00,0.12,37.00
33,-0.04,1.06,0.12,44.21
33,-0.03,1.00,0.12,44.50
33,-0.03,1.01,0.12,44.50
33,-0.03,1.00,0.12,39.12
33,-0.02,1.00,0.12,48.70
33,-0.02,1.00,0.12,48.70
33,-0.02,1.00,0.12,42.56
33,-0.02,1.00,0.07,45.78
33,-0.02,1.00,0.13,45.78
33,-0.03,1.01,0.13,44.63
33,-0.03,1.01,0.14,46.41
33,-0.02,1.01,0.14,46.15
33,-0.03,1.00,0.13,43.02
33,-0.03,1.00,0.13,37.47
33,-0.04,1.00,0.13,41.53
33,-0.02,0.99,0.12,41.53
33,-0.03,1.00,0.13,45.85
33,-0.03,1.00,0.19,42.78
33,-0.04,1.01,0.12,42.78
33,-0.03,1.00,0.12,51.78
33,-0.03,1.00,0.12,43.06
33,-0.02,1.00,0.12,43.06
33,-0.02,1.00,0.12,39.15
33,-0.02,1.06,0.11,40.86
33,-0.02,1.00,0.11,43.18
33,-0.03,1.01,0.12,43.18
33,-0.03,1.00,0.12,44.06
33,-0.03,1.00,0.12,44.79
33,-0.03,1.01,0.12,44.79
33,-0.03,1.00,0.14,53.09
33,-0.03,1.00,0.13,45.74
33,-0.04,1.01,0.13,45.74
33,-0.05,1.00,0.14,40.97
33,-0.05,1.00,0.14,44.22
33,-0.03,1.00,0.14,43.88
33,-0.03,1.00,0.14,36.83
33,-0.03,1.00,0.13,48.08
33,-0.03,1.00,0.13,44.06
33,-0.03,1.00,0.12,44.06
33,-0.04,1.01,0.12,41.60
33,-0.04,1.01,0.11,39.45
33,-0.03,1.00,0.11,39.45
33,-0.02,1.00,0.13,47.26
33,-0.02,1.00,0.12,45.04
33,-0.03,1.01,0.12,44.91
33,-0.03,0.99,0.13,42.56
33,-0.03,1.00,0.12,45.24
33,-0.04,1.00,0.12,46.49
33,-0.03,1.01,0.11,46.49
33,-0.03,1.00,0.13,41.39
33,-0.03,1.00,0.13,39.45
33,-0.02,1.00,0.13,39.45
33,-0.03,1.00,0.14,43.08
33,-0.03,1.00,0.13,41.80
33,-0.02,1.00,0.13,41.80
33,-0.04,1.00,0.14,48.26
33,-0.04,1.01,0.14,46.55
33,-0.02,1.01,0.14,46.63
33,-0.03,1.00,0.13,43.50
33,-0.03,1.00,0.12,40.39
33,-0.03,1.00,0.12,46.42
33,-0.02,1.00,0.12,46.42
33,-0.03,1.01,0.13,46.06
33,-0.03,1.01,0.18,36.57
33,-0.03,1.00,0.12,36.57
33,-0.03,1.01,0.12,38.43
33,-0.03,1.01,0.12,45.54
33,-0.03,1.00,0.12,45.41
33,-0.02,1.00,0.12,46.19
33,-0.02,1.01,0.12,43.82
33,-0.03,1.01,0.12,41.10
33,-0.03,1.00,0.13,41.10
33,-0.04,1.00,0.13,46.01
33,-0.04,1.00,0.13,40.29
33,-0.04,1.00,0.13,40.29
33,-0.03,1.00,0.12,45.93
33,-0.03,1.00,0.13,45.15
33,-0.03,0.99,0.13,45.15
33,-0.03,1.00,0.14,44.37
33,-0.03,0.99,0.14,43.62
33,-0.03,0.99,0.14,43.60
33,-0.03,1.00,0.13,38.12
33,-0.03,1.00,0.12,42.56
33,-0.03,1.00,0.07,44.77
33,-0.03,1.01,0.13,44.77
33,-0.02,1.01,0.13,50.97
33,-0.02,1.01,0.12,45.51
33,-0.01,1.00,0.12,45.51
33,-0.03,1.01,0.13,46.85
33,-0.03,1.06,0.12,40.80
33,-0.03,1.00,0.12,41.17
33,-0.03,1.00,0.13,38.04
33,-0.03,1.00,0.12,45.92
33,-0.03,1.00,0.12,44.74
33,-0.02,1.01,0.12,44.74
33,-0.03,1.00,0.12,48.58
33,-0.03,1.00,0.11,43.38
33,-0.03,0.99,0.11,43.38
33,-0.04,0.99,0.13,45.23
33,-0.04,0.99,0.14,36.58
33,-0.06,0.99,0.14,36.27
33,-0.00,0.99,0.12,42.54
33,-0.00,0.94,0.12,40.80
33,-0.05,1.01,0.12,43.42
33,-0.03,1.00,0.12,43.42
33,-0.03,1.00,0.12,36.92
33,-0.00,1.00,0.12,43.19
33,-0.00,1.01,0.12,43.19
33,-0.03,1.00,0.12,44.50
33,-0.03,1.00,0.13,44.23
33,-0.03,1.00,0.13,44.23
33,-0.02,1.00,0.12,39.21
33,-0.02,1.06,0.11,53.63
33,-0.04,0.99,0.11,53.66
33,-0.05,1.00,0.12,47.39
33,-0.05,1.01,0.12,54.14
33,-0.04,1.01,0.12,45.58
33,-0.03,1.00,0.13,45.58
33,-0.02,1.00,0.14,38.82
33,-0.02,1.00,0.19,46.47
33,-0.03,0.99,0.12,46.47
33,-0.01,1.00,0.14,46.59
33,-0.01,0.99,0.13,45.38
1,-0.10,1.08,0.11,37.73
1,0.05,0.89,0.11,37.81
1,-0.08,0.97,0.14,40.16
1,-0.08,1.17,0.08,46.29
1,-0.07,1.17,0.07,44.00
1,0.03,0.89,0.13,44.00
1,0.00,1.03,0.18,43.97
1,-0.06,1.03,0.07,43.58
1,-0.01,0.98,0.07,43.58
1,-0.02,0.96,0.11,46.44
1,-0.02,0.97,0.16,41.53
1,-0.08,1.15,0.16,41.67
1,0.05,0.88,0.13,43.23
1,0.05,0.97,0.15,44.42
1,-0.09,0.97,0.15,47.22
1,-0.07,1.10,0.06,47.22
1,-0.12,0.93,0.13,41.08
1,0.01,0.93,0.13,41.04
1,-0.08,1.07,0.20,41.04
1,0.03,0.91,0.09,48.46
1,0.03,0.91,0.12,39.87
1,-0.05,0.97,0.12,39.27
1,-0.05,1.17,0.10,46.32
1,-0.05,1.13,0.12,47.00
1,0.04,0.88,0.12,45.47
1,-0.09,1.01,0.19,45.47
1,-0.09,1.03,0.07,41.38
1,-0.01,1.03,0.09,44.29
1,-0.02,0.97,0.09,44.29
1,-0.11,1.12,0.17,41.03
1,-0.11,1.12,0.11,41.82
1,0.02,0.89,0.11,41.82
1,-0.07,0.97,0.16,41.67
1,-0.07,0.95,0.08,44.21
1,-0.03,1.13,0.08,44.52
1,0.01,0.91,0.13,42.96
1,0.01,1.05,0.19,40.99
1,-0.05,1.05,0.19,36.93
1,0.01,0.95,0.10,36.93
1,0.03,0.96,0.10,42.16
1,-0.03,0.96,0.11,40.48
1,-0.05,1.18,0.11,40.48
1,0.04,0.87,0.13,43.53
1,0.04,0.82,0.16,37.97
1,-0.03,1.00,0.16,37.78
1,-0.03,1.05,0.06,51.09
1,-0.03,0.94,0.12,44.10
1,-0.02,0.94,0.12,45.95
1,-0.04,1.12,0.21,45.95
1,-0.06,0.92,0.09,40.55
1,0.01,0.92,0.12,50.02
1,-0.06,0.96,0.12,50.02
1,-0.06,1.17,0.10,38.94
1,-0.06,1.17,0.15,44.33
1,0.02,0.86,0.15,44.33
1,0.00,1.05,0.16,45.48
1,0.00,1.04,0.06,42.82
1,0.02,0.98,0.06,40.72
1,-0.02,0.97,0.09,40.72
1,-0.02,1.17,0.13,44.03
1,-0.02,1.17,0.18,42.80
1,0.04,0.87,0.12,42.80
1,0.03,0.99,0.14,42.71
1,-0.10,0.99,0.06,37.89
1,-0.04,1.10,0.06,37.89
1,-0.00,0.94,0.13,43.39
1,-0.00,0.95,0.20,44.30
1,-0.11,1.08,0.20,43.87
1,0.02,0.91,0.10,44.65
1,0.02,0.96,0.13,41.70
1,-0.05,0.96,0.13,41.60
1,-0.02,1.16,0.11,41.60
1,-0.03,0.89,0.14,42.05
1,0.03,0.89,0.18,48.74
1,-0.07,1.01,0.18,48.74
1,0.01,1.01,0.07,46.62
1,0.01,1.01,0.10,50.84
1,-0.01,0.97,0.10,50.60
1,-0.09,1.14,0.16,41.98
1,-0.09,1.19,0.12,45.30
1,0.02,0.87,0.12,38.16
1,-0.06,0.99,0.14,38.16
1,-0.06,1.13,0.07,47.17
1,-0.05,1.13,0.10,44.56
1,0.00,0.93,0.10,44.56
1,-0.09,1.07,0.19,44.52
1,-0.09,1.07,0.09,42.47
1,0.04,0.94,0.09,42.47
1,-0.03,0.98,0.11,45.54
1,-0.03,0.97,0.12,45.84
1,-0.07,1.16,0.12,45.63
1,0.02,0.88,0.15,40.15
1,0.02,1.00,0.18,40.76
1,-0.07,1.00,0.18,41.18
1,-0.01,1.04,0.07,41.18
1,-0.02,0.95,0.11,39.28
1,-0.02,0.95,0.11,44.27
1,-0.11,1.12,0.18,44.27
1,0.03,0.88,0.11,46.72
1,0.03,0.92,0.14,46.31
1,-0.04,0.98,0.14,46.66
1,-0.06,1.14,0.08,49.80
1,-0.06,0.92,0.12,46.26
1,-0.00,0.92,0.12,37.30
1,-0.08,1.04,0.19,37.30
1,-0.10,0.96,0.08,41.87
1,0.03,0.96,0.10,38.60
1,-0.02,0.97,0.10,38.60
1,-0.09,1.16,0.13,41.47
1,-0.09,1.16,0.13,42.61
1,0.03,0.88,0.13,42.61
1,-0.07,0.98,0.16,38.39
1,-0.07,0.95,0.09,44.91
1,-0.02,1.07,0.09,42.63
1,-0.01,0.94,0.10,42.63
1,-0.01,1.10,0.18,47.20
1,-0.10,1.10,0.18,42.16
1,0.04,0.89,0.12,42.16
1,0.04,0.98,0.13,49.61
1,-0.03,0.98,0.09,45.26
1,-0.07,1.14,0.09,45.26
1,-0.00,0.91,0.13,47.04
1,-0.00,0.89,0.18,44.87
1,-0.08,1.01,0.18,45.06
1,0.01,1.00,0.08,48.20
1,0.01,0.97,0.10,44.98
1,-0.01,0.97,0.10,45.58
1,-0.10,1.15,0.14,45.58
1,-0.10,0.87,0.13,41.62
1,0.03,0.87,0.16,38.97
1,-0.05,0.99,0.16,38.97
1,-0.04,1.09,0.07,41.29
1,-0.04,1.09,0.11,45.49
1,-0.01,0.94,0.11,45.75
1,-0.10,1.07,0.18,39.49
1,-0.10,1.10,0.11,42.75
1,0.03,0.91,0.11,41.03
1,-0.01,0.98,0.11,41.03
1,-0.01,1.15,0.11,47.48
1,-0.08,1.15,0.07,45.40
1,0.01,0.89,0.13,45.40
1,-0.08,1.01,0.19,48.68
1,-0.08,1.01,0.08,44.62
1,-0.00,1.01,0.08,44.62
1,-0.01,0.97,0.09,45.74
1,-0.01,0.94,0.15,39.76
1,-0.10,1.13,0.15,39.25
1,0.03,0.87,0.12,42.39
1,0.03,0.99,0.14,41.45
1,-0.04,0.99,0.14,42.77
1,-0.04,1.12,0.08,42.77
1,-0.06,0.93,0.11,39.92
1,0.01,0.93,0.06,44.26
1,-0.09,1.05,0.19,44.26
1,0.03,0.94,0.09,42.98
1,0.03,0.98,0.12,39.61
1,-0.02,0.98,0.12,39.36
1,-0.10,1.15,0.14,38.57
1,-0.10,0.88,0.13,45.12
1,0.02,0.88,0.13,42.69
1,-0.07,0.99,0.17,42.69
1,-0.07,1.04,0.08,41.39
1,-0.01,1.04,0.10,41.48
1,0.00,0.96,0.10,41.48
1,-0.10,1.10,0.16,43.01
1,-0.10,1.10,0.12,41.19
1,0.03,0.89,0.12,40.78
1,-0.04,0.98,0.14,41.56
1,-0.04,0.95,0.09,37.26
1,-0.07,1.13,0.09,49.44
1,-0.00,0.92,0.12,49.44
1,-0.00,1.04,0.19,44.91
1,-0.09,1.04,0.20,44.11
1,0.02,0.97,0.08,44.11
1,0.05,0.97,0.11,45.42
1,-0.01,0.97,0.15,44.23
1,-0.08,1.15,0.15,44.23
1,0.02,0.88,0.14,40.57
1,0.02,0.92,0.16,49.45
1,-0.05,0.98,0.16,49.89
1,-0.02,1.07,0.08,48.32
1,-0.02,0.95,0.10,38.10
1,-0.01,0.95,0.10,46.94
1,-0.11,1.09,0.19,46.94
1,-0.09,0.90,0.11,45.40
1,0.04,0.90,0.12,42.09
1,-0.02,0.97,0.12,42.09
1,-0.08,1.14,0.10,38.42
1,-0.08,1.14,0.13,46.44
1,-0.00,0.90,0.13,46.79
1,-0.08,1.02,0.18,46.79
1,-0.08,1.06,0.08,42.76
1,0.01,0.99,0.08,48.12
1,-0.01,0.98,0.10,48.12
1,-0.01,1.13,0.16,42.65
1,-0.10,1.13,0.18,42.82
1,0.03,0.88,0.12,42.82
1,-0.04,0.98,0.15,49.17
1,-0.04,0.98,0.08,41.10
1,-0.04,1.10,0.08,41.10
1,-0.00,0.93,0.11,42.80
1,-0.00,0.88,0.19,44.62
1,-0.09,1.07,0.19,45.09
1,0.03,0.92,0.11,48.23
1,0.03,0.98,0.12,43.08
1,-0.01,0.98,0.12,43.39
1,-0.08,1.14,0.12,43.39
1,-0.11,0.89,0.13,47.70
1,0.01,0.89,0.13,40.57
1,-0.07,1.00,0.19,40.57
1,0.00,1.02,0.07,40.19
1,0.00,1.02,0.10,41.95
1,-0.01,0.96,0.10,41.95
1,-0.10,1.12,0.16,38.81
1,-0.10,0.89,0.12,40.44
1,0.03,0.89,0.12,41.14
1,-0.02,0.98,0.13,41.14
1,-0.05,1.12,0.08,48.26
1,-0.05,1.12,0.11,45.21
1,0.00,0.93,0.11,45.21
1,-0.09,1.04,0.18,44.42
1,-0.09,1.04,0.09,40.83
1,0.03,0.94,0.09,40.83
1,-0.02,0.98,0.12,41.83
1,-0.02,0.96,0.12,42.06
2,0.04,0.90,0.12,46.39
2,0.04,0.92,0.13,45.55
2,-0.03,0.98,0.13,46.04
2,-0.07,1.13,0.10,49.17
2,-0.07,0.91,0.11,39.99
2,-0.00,0.91,0.11,43.80
2,-0.08,1.02,0.18,43.80
2,-0.10,0.97,0.09,48.68
2,0.02,0.97,0.09,46.92
2,-0.01,0.96,0.09,46.92
2,-0.10,1.13,0.14,46.95
2,-0.10,1.13,0.13,40.52
2,0.02,0.89,0.13,40.52
2,-0.05,0.98,0.16,44.27
2,-0.05,0.94,0.09,41.23
2,-0.03,1.07,0.09,40.88
2,-0.01,0.94,0.12,39.31
2,-0.01,1.07,0.18,42.89
2,-0.10,1.07,0.18,44.33
2,0.03,0.91,0.10,44.33
2,0.05,0.98,0.11,40.45
2,-0.01,0.98,0.11,45.39
2,-0.08,1.14,0.11,45.39
2,0.00,0.90,0.12,40.58
2,0.00,0.88,0.18,38.87
2,-0.09,1.01,0.18,38.95
2,0.01,1.00,0.08,42.86
2,0.01,0.97,0.10,39.75
2,-0.01,0.97,0.10,40.42
2,-0.11,1.12,0.16,40.42
2,-0.10,0.88,0.12,45.87
2,0.03,0.88,0.08,42.47
2,-0.04,0.97,0.15,42.47
2,-0.05,1.09,0.08,40.78
2,-0.05,1.09,0.11,44.39
2,-0.01,0.94,0.11,44.45
2,-0.10,1.06,0.19,45.23
2,-0.10,1.05,0.09,42.19
2,0.03,0.93,0.09,45.63
2,-0.01,0.98,0.12,45.63
2,-0.01,1.14,0.12,45.24
2,-0.09,1.14,0.07,44.72
2,0.01,0.89,0.14,44.72
2,0.06,0.99,0.17,46.74
2,-0.07,0.99,0.08,45.23
2,0.00,1.03,0.08,45.23
2,-0.01,0.96,0.10,49.55
2,-0.01,0.98,0.17,44.39
2,-0.10,1.11,0.17,43.82
2,0.04,0.90,0.11,38.33
2,0.04,0.98,0.15,43.69
2,-0.03,0.98,0.15,42.97
2,-0.07,1.12,0.10,42.97
2,-0.07,0.93,0.12,42.43
2,-0.00,0.93,0.06,46.88
2,-0.09,1.04,0.19,46.88
2,0.02,0.96,0.10,45.03
2,0.02,0.96,0.11,43.39
2,-0.01,0.98,0.11,43.58
2,-0.10,1.14,0.13,43.58
2,-0.10,0.89,0.13,48.20
2,0.02,0.89,0.13,44.34
2,-0.06,0.99,0.18,44.34
2,-0.01,1.06,0.08,46.69
2,-0.01,1.06,0.11,42.53
2,-0.01,0.96,0.11,42.53
2,-0.10,1.08,0.16,39.15
2,-0.10,1.08,0.11,49.26
2,0.03,0.91,0.11,49.26
2,-0.02,0.97,0.13,43.53
2,-0.02,0.94,0.10,42.79
2,-0.07,1.13,0.10,42.45
2,-0.00,0.91,0.11,47.15
2,-0.00,1.02,0.17,42.06
2,-0.08,1.02,0.17,42.78
2,0.02,0.98,0.09,42.78
2,0.06,0.97,0.11,40.01
2,-0.01,0.97,0.15,39.74
2,-0.10,1.13,0.15,39.74
2,0.03,0.90,0.12,43.48
2,0.03,0.92,0.16,45.67
2,-0.05,0.98,0.16,45.89
2,-0.04,1.08,0.08,42.76
2,-0.04,0.95,0.10,46.63
2,-0.01,0.95,0.10,42.99
2,-0.10,1.07,0.17,42.99
2,-0.10,0.92,0.11,41.19
2,0.03,0.92,0.11,46.43
2,-0.01,0.97,0.11,46.43
2,-0.09,1.14,0.12,43.37
2,-0.09,1.14,0.13,45.72
2,0.00,0.91,0.13,45.79
2,-0.08,1.01,0.18,42.66
2,-0.08,1.01,0.08,41.86
2,0.01,1.01,0.08,45.88
2,-0.01,0.97,0.10,45.88
2,-0.01,1.12,0.16,39.71
2,-0.10,1.12,0.17,45.72
2,0.02,0.90,0.11,45.72
2,0.02,0.98,0.14,46.15
2,-0.04,0.98,0.09,45.03
2,-0.05,1.10,0.09,45.03
2,-0.01,0.94,0.11,42.12
2,-0.01,0.93,0.18,40.88
2,-0.10,1.06,0.18,41.43
2,0.02,0.93,0.10,46.91
2,0.02,0.97,0.11,44.53
2,-0.00,0.97,0.11,36.40
2,-0.09,1.15,0.12,36.40
2,-0.12,0.90,0.12,47.71
2,0.01,0.90,0.11,48.32
2,-0.06,1.00,0.17,48.32
2,-0.01,1.05,0.08,40.63
2,-0.01,1.05,0.10,44.21
2,0.00,0.95,0.10,44.19
2,-0.10,1.09,0.18,43.40
2,-0.10,0.90,0.11,46.21
2,0.03,0.90,0.11,48.93
2,-0.02,0.97,0.13,48.93
2,-0.00,1.12,0.11,45.80
2,-0.06,1.12,0.11,43.97
2,0.00,0.92,0.11,43.97
2,-0.08,1.03,0.18,50.30
2,-0.08,1.03,0.10,39.64
2,0.03,0.97,0.10,39.64
2,-0.01,0.97,0.11,50.06
2,-0.01,1.00,0.15,39.86
2,-0.09,1.12,0.15,39.83
2,0.01,0.89,0.13,39.04
2,0.01,0.99,0.16,48.71
2,-0.04,0.99,0.14,45.27
2,-0.03,1.07,0.08,45.27
2,-0.01,0.95,0.11,47.06
2,-0.01,0.95,0.18,42.46
2,-0.10,1.09,0.18,42.46
2,0.02,0.92,0.10,40.94
2,0.02,0.92,0.13,38.62
2,-0.00,0.98,0.13,38.76
2,-0.08,1.12,0.10,41.11
2,-0.08,0.91,0.12,40.99
2,-0.01,0.91,0.12,43.55
2,-0.09,1.02,0.18,43.55
2,-0.12,0.99,0.09,39.05
2,0.01,0.99,0.10,40.24
2,-0.01,0.97,0.10,40.24
2,-0.10,1.12,0.14,39.92
2,-0.10,1.12,0.12,49.73
2,0.02,0.88,0.12,49.92
2,-0.04,0.98,0.15,43.66
2,-0.04,0.97,0.09,43.99
2,-0.04,1.09,0.09,46.90
2,-0.00,0.95,0.10,46.90
2,-0.00,1.07,0.18,43.49
2,-0.10,1.07,0.17,41.55
2,0.03,0.94,0.11,41.55
2,0.05,0.97,0.11,47.46
2,-0.01,0.97,0.13,41.02
2,-0.09,1.13,0.13,41.02
2,-0.00,0.90,0.12,45.73
2,-0.00,0.88,0.17,40.86
2,-0.07,1.00,0.17,40.76
2,0.01,1.02,0.09,39.98
2,0.01,0.96,0.10,39.63
2,-0.00,0.96,0.10,39.72
2,-0.11,1.11,0.15,39.72
2,-0.09,0.89,0.12,41.69
2,0.03,0.89,0.07,36.41
2,-0.03,0.98,0.14,36.41
2,-0.05,1.10,0.10,41.11
2,-0.05,1.10,0.12,38.18
2,-0.01,0.92,0.12,38.29
2,-0.09,1.04,0.18,43.78
2,-0.09,1.01,0.09,44.98
2,0.02,0.95,0.09,45.23
2,0.00,0.98,0.11,45.23
2,0.03,1.13,0.13,47.33
2,-0.10,1.13,0.13,42.52
2,0.01,0.90,0.13,42.52
2,-0.05,0.99,0.16,41.16
2,-0.05,0.99,0.08,42.97
2,-0.01,1.04,0.08,42.97
2,-0.01,0.97,0.10,43.22
2,-0.01,0.96,0.17,45.01
2,-0.09,1.09,0.17,44.80
2,0.03,0.90,0.11,43.23
2,0.03,0.98,0.13,44.47
2,-0.02,0.98,0.17,46.38
2,-0.06,1.12,0.11,46.38
2,-0.00,0.92,0.11,45.09
2,-0.00,0.92,0.17,39.94
2,-0.08,1.02,0.17,39.94
2,0.01,0.99,0.09,40.86
2,0.01,0.97,0.10,42.19
2,-0.00,0.97,0.10,41.49
2,-0.10,1.13,0.14,43.06
2,-0.10,0.89,0.12,40.79
2,0.02,0.89,0.12,41.42
2,-0.05,0.98,0.16,41.42
2,-0.03,1.06,0.10,39.97
2,-0.03,1.06,0.10,43.14
2,-0.00,0.96,0.10,43.14
2,-0.10,1.07,0.17,40.26
2,-0.10,1.07,0.11,46.85
2,0.03,0.93,0.11,46.50
2,-0.01,0.98,0.11,41.01
2,-0.01,0.94,0.11,42.95
2,-0.07,1.13,0.11,48.53
2,0.00,0.91,0.13,48.53
2,0.00,1.01,0.17,41.26
2,-0.07,1.01,0.15,48.02
2,0.01,1.00,0.09,48.02
2,0.06,0.96,0.10,43.56
2,-0.00,0.96,0.15,39.76
2,-0.10,1.12,0.15,39.76
2,0.03,0.89,0.12,47.65
2,0.03,0.91,0.16,39.68
2,-0.03,0.97,0.16,39.68
2,-0.04,1.09,0.10,47.52
2,-0.04,0.93,0.13,41.83
2,-0.00,0.93,0.13,40.12
2,-0.09,1.06,0.17,40.12
2,-0.10,0.94,0.10,41.34
2,0.02,0.94,0.11,40.32
2,-0.00,0.97,0.11,40.32
2,-0.08,1.13,0.13,47.50
2,-0.08,1.13,0.13,44.03
2,0.00,0.90,0.13,44.42
2,-0.06,1.00,0.18,45.21
2,-0.06,1.02,0.09,45.85
2,-0.00,1.02,0.09,40.56
2,-0.00,0.95,0.10,40.56
2,-0.04,1.09,0.16,45.56
2,-0.11,1.09,0.18,42.29
3,0.02,0.96,0.11,41.29
3,-0.01,0.96,0.11,39.98
3,-0.09,1.12,0.13,39.98
3,-0.11,0.90,0.12,41.77
3,0.01,0.90,0.10,41.64
3,-0.05,0.99,0.16,41.64
3,-0.02,1.05,0.09,40.06
3,-0.02,1.05,0.10,38.10
3,-0.01,0.95,0.10,38.28
3,-0.10,1.08,0.18,42.98
3,-0.10,1.11,0.11,40.30
3,0.03,0.92,0.11,47.63
3,-0.01,0.98,0.12,47.63
3,-0.01,1.12,0.10,45.24
3,-0.07,1.12,0.11,43.44
3,-0.01,0.91,0.11,43.44
3,-0.02,1.02,0.19,47.41
3,-0.08,1.02,0.09,38.67
3,0.02,0.99,0.09,38.67
3,-0.00,0.97,0.11,39.82
3,-0.00,0.99,0.15,43.80
3,-0.11,1.11,0.15,43.49
3,0.02,0.90,0.12,43.49
3,0.02,0.99,0.16,42.02
3,-0.04,0.99,0.16,46.74
3,-0.03,1.08,0.09,46.74
3,-0.01,0.94,0.12,46.19
3,-0.01,0.94,0.11,40.87
3,-0.10,1.07,0.17,40.87
3,0.02,0.93,0.10,41.32
3,0.02,0.91,0.12,48.63
3,-0.01,0.97,0.12,48.55
3,-0.08,1.12,0.13,46.20
3,-0.08,0.91,0.12,43.61
3,-0.00,0.91,0.12,46.88
3,-0.07,1.01,0.18,46.88
3,-0.12,1.02,0.10,40.75
3,0.01,1.02,0.10,45.85
3,-0.01,0.95,0.10,45.85
3,-0.10,1.11,0.15,39.06
3,-0.10,1.11,0.11,42.64
3,0.02,0.90,0.11,42.64
3,-0.04,0.98,0.15,40.42
3,-0.04,0.97,0.09,41.85
3,-0.04,1.09,0.09,46.30
3,-0.00,0.94,0.12,46.30
3,-0.00,1.05,0.18,42.67
3,-0.10,1.05,0.15,40.04
3,0.02,0.96,0.09,40.04
3,0.06,0.97,0.11,43.20
3,-0.00,0.97,0.12,44.64
3,-0.09,1.12,0.12,44.64
3,0.01,0.91,0.12,42.60
3,0.01,0.93,0.17,48.54
3,-0.05,1.00,0.17,48.85
3,-0.01,1.04,0.09,46.50
3,-0.01,0.96,0.10,40.65
3,0.00,0.96,0.10,46.62
3,-0.10,1.09,0.18,46.62
3,-0.10,0.92,0.12,44.97
3,0.02,0.92,0.06,46.44
3,-0.03,0.98,0.13,46.44
3,-0.05,1.11,0.10,45.31
3,-0.05,1.11,0.11,45.18
3,-0.00,0.91,0.11,44.72
3,-0.10,1.02,0.18,39.24
3,-0.10,1.03,0.09,44.44
3,0.01,0.97,0.09,46.70
3,0.00,0.97,0.11,46.70
3,0.00,1.12,0.13,43.56
3,-0.10,1.12,0.18,47.13
3,0.00,0.90,0.12,47.13
3,-0.04,0.99,0.17,41.60
3,-0.04,0.99,0.08,44.12
3,-0.02,1.05,0.08,44.12
3,-0.01,0.95,0.11,38.79
3,-0.01,0.96,0.18,48.19
3,-0.11,1.08,0.18,48.30
3,0.03,0.92,0.11,46.74
3,0.03,0.98,0.13,46.21
3,-0.01,0.98,0.13,41.09
3,-0.07,1.11,0.11,41.09
3,-0.07,0.92,0.12,44.49
3,-0.00,0.92,0.11,43.95
3,-0.08,1.02,0.18,43.95
3,0.01,0.99,0.09,46.79
3,0.01,0.98,0.10,49.79
3,-0.00,0.98,0.10,49.46
3,-0.10,1.11,0.15,40.84
3,-0.10,0.90,0.12,42.67
3,0.02,0.90,0.12,45.11
3,-0.04,0.99,0.16,45.11
3,-0.03,1.08,0.09,40.38
3,-0.03,1.08,0.12,36.78
3,-0.01,0.94,0.12,36.78
3,-0.10,1.06,0.17,40.80
3,-0.10,1.06,0.10,52.55
3,0.02,0.93,0.10,52.55
3,-0.01,0.98,0.11,47.88
3,-0.01,0.98,0.12,48.73
3,-0.09,1.11,0.12,48.82
3,0.00,0.91,0.12,47.26
3,0.00,1.02,0.17,43.60
3,-0.06,1.02,0.16,47.59
3,-0.01,1.02,0.10,47.59
3,-0.00,0.96,0.11,43.78
3,-0.00,0.96,0.16,41.62
3,-0.10,1.10,0.16,41.62
3,0.02,0.91,0.12,41.13
3,0.02,0.92,0.15,44.25
3,-0.04,0.98,0.15,44.55
3,-0.04,1.09,0.09,40.63
3,-0.04,0.94,0.12,45.54
3,-0.01,0.94,0.12,43.33
3,-0.09,1.04,0.18,43.33
3,-0.10,0.96,0.09,42.38
3,0.03,0.96,0.11,47.69
3,-0.00,0.97,0.11,47.69
3,-0.09,1.12,0.14,52.24
3,-0.09,1.12,0.12,45.12
3,0.00,0.91,0.12,44.88
3,-0.06,1.00,0.17,48.80
3,-0.06,0.98,0.10,44.16
3,-0.02,1.04,0.10,41.34
3,-0.01,0.95,0.12,41.34
3,-0.01,1.08,0.16,46.04
3,-0.11,1.08,0.16,43.15
3,0.02,0.92,0.10,43.15
3,0.05,0.98,0.13,38.87
3,-0.01,0.98,0.11,41.69
3,-0.06,1.09,0.11,41.69
3,-0.01,0.92,0.11,38.42
3,-0.01,0.91,0.18,46.47
3,-0.09,1.03,0.18,46.40
3,0.01,0.98,0.08,44.84
3,0.01,0.97,0.12,39.26
3,0.00,0.97,0.12,46.90
3,-0.09,1.12,0.13,46.90
3,-0.12,0.91,0.12,45.47
3,0.01,0.91,0.17,44.35
3,-0.05,0.99,0.17,44.35
3,-0.02,1.07,0.10,44.31
3,-0.02,1.08,0.10,45.98
3,-0.01,0.96,0.10,45.95
3,-0.11,1.06,0.17,45.16
3,-0.11,0.94,0.11,46.98
3,0.03,0.94,0.11,50.11
3,-0.02,0.98,0.13,50.11
3,-0.01,1.12,0.12,49.27
3,-0.07,1.12,0.12,43.33
3,-0.00,0.91,0.12,43.33
3,-0.07,1.01,0.16,42.98
3,-0.07,1.01,0.09,40.98
3,0.01,1.01,0.09,41.25
3,-0.00,0.97,0.11,38.12
3,-0.00,0.98,0.17,42.19
3,-0.09,1.11,0.17,41.97
3,0.01,0.91,0.11,41.97
3,0.01,0.98,0.14,50.05
3,-0.03,0.98,0.16,44.80
3,-0.04,1.07,0.10,44.80
3,-0.01,0.94,0.11,46.59
3,-0.01,0.94,0.18,43.51
3,-0.09,1.06,0.18,43.51
3,0.03,0.95,0.09,46.16
3,0.03,0.97,0.12,46.22
3,-0.01,0.97,0.12,46.53
3,-0.08,1.11,0.13,41.05
3,-0.08,0.91,0.11,37.92
3,0.00,0.91,0.11,50.67
3,-0.06,1.00,0.16,50.67
3,-0.00,1.02,0.09,48.76
3,-0.00,1.02,0.10,44.77
3,-0.01,0.96,0.10,44.77
3,-0.10,1.10,0.16,44.29
3,-0.10,1.10,0.10,42.13
3,0.01,0.92,0.10,42.09
3,-0.03,0.99,0.13,42.87
3,-0.03,1.09,0.11,38.06
3,-0.06,1.09,0.11,41.32
3,-0.00,0.93,0.11,41.32
3,-0.03,1.03,0.19,40.79
3,-0.09,1.03,0.21,44.05
3,0.02,0.96,0.09,44.05
3,-0.00,0.97,0.12,45.81
3,-0.00,0.97,0.14,43.87
3,-0.09,1.11,0.14,43.87
3,0.00,0.91,0.11,49.87
3,0.00,0.88,0.15,46.27
3,-0.05,1.00,0.15,44.23
3,-0.01,1.05,0.08,44.23
3,-0.01,0.96,0.11,44.25
3,-0.00,0.96,0.10,44.65
3,-0.10,1.07,0.17,44.65
3,-0.10,0.92,0.10,40.95
3,0.02,0.92,0.13,45.10
3,-0.01,0.99,0.13,45.10
3,-0.06,1.11,0.11,50.13
3,-0.06,1.11,0.10,49.84
3,-0.00,0.92,0.10,49.86
3,-0.08,1.02,0.16,46.73
3,-0.08,0.99,0.09,46.30
3,0.01,0.99,0.09,48.63
3,-0.01,0.96,0.12,48.63
3,-0.03,1.11,0.14,50.02
3,-0.10,1.11,0.17,45.45
3,0.02,0.92,0.11,45.45
3,-0.04,1.00,0.15,42.29
3,-0.04,1.00,0.10,44.24
3,-0.03,1.07,0.10,44.51
3,-0.01,0.94,0.11,43.73
3,-0.01,0.99,0.17,40.46
3,-0.10,1.05,0.17,43.38
3,0.03,0.94,0.10,43.38
3,0.03,0.98,0.12,51.87
3,-0.00,0.98,0.11,45.19
3,-0.07,1.11,0.11,45.19
3,-0.00,0.92,0.11,37.63
3,-0.00,0.92,0.16,48.33
3,-0.07,1.01,0.16,48.33
3,-0.00,1.02,0.09,47.02
3,-0.00,1.03,0.10,48.17
3,-0.00,0.97,0.10,48.29
3,-0.10,1.09,0.14,41.24
3,-0.10,0.92,0.12,44.60
3,0.02,0.92,0.07,47.78
3,-0.04,0.99,0.14,47.78
3,-0.04,1.09,0.10,41.60
3,-0.04,1.09,0.10,45.24
3,-0.00,0.94,0.10,45.24
3,-0.09,1.04,0.18,47.47
3,-0.09,1.03,0.10,44.38
3,0.02,0.96,0.10,44.01
4,-0.01,0.95,0.16,42.54
4,-0.10,1.08,0.16,42.54
4,0.02,0.92,0.12,43.17
4,0.02,0.92,0.13,46.74
4,-0.02,0.98,0.13,46.15
4,-0.06,1.09,0.11,49.29
4,-0.06,0.93,0.11,49.42
4,-0.00,0.93,0.11,39.16
4,-0.09,1.03,0.18,39.16
4,-0.12,0.97,0.09,38.09
4,0.01,0.97,0.11,38.64
4,-0.00,0.97,0.11,38.64
4,-0.09,1.10,0.14,45.80
4,-0.09,1.10,0.11,48.77
4,0.01,0.91,0.11,48.72
4,-0.05,0.99,0.16,47.94
4,-0.05,0.99,0.10,41.43
4,-0.03,1.05,0.10,43.10
4,-0.02,0.95,0.10,43.10
4,-0.04,1.08,0.17,50.04
4,-0.10,1.08,0.16,43.90
4,0.03,0.92,0.10,43.90
4,-0.01,0.97,0.13,41.84
4,-0.01,0.97,0.11,42.07
4,-0.06,1.10,0.11,42.07
4,-0.01,0.92,0.11,45.32
4,-0.01,0.90,0.17,52.39
4,-0.08,1.02,0.17,52.39
4,0.01,1.00,0.09,43.78
4,0.01,0.97,0.10,44.87
4,0.00,0.97,0.10,43.69
4,-0.09,1.10,0.15,43.69
4,-0.11,0.92,0.11,45.11
4,0.01,0.92,0.08,50.18
4,-0.04,0.99,0.14,50.18
4,-0.03,1.08,0.09,46.92
4,-0.03,1.07,0.11,41.97
4,-0.01,0.95,0.11,41.74
4,-0.09,1.05,0.18,44.09
4,-0.09,0.95,0.10,46.04
4,0.02,0.95,0.10,50.58
4,-0.01,0.97,0.12,50.58
4,-0.01,1.10,0.13,52.54
4,-0.08,1.10,0.18,42.38
4,0.00,0.92,0.11,42.38
4,-0.08,1.00,0.16,39.68
4,-0.08,1.00,0.09,46.56
4,-0.00,1.02,0.09,46.56
4,-0.01,0.97,0.09,46.34
4,-0.01,0.96,0.15,47.26
4,-0.10,1.09,0.15,43.02
4,0.02,0.92,0.11,43.02
4,0.02,0.99,0.14,41.85
4,-0.02,0.99,0.17,46.13
4,-0.04,1.09,0.11,46.13
4,-0.00,0.94,0.10,42.65
4,-0.00,0.94,0.17,45.47
4,-0.08,1.04,0.17,45.47
4,0.01,0.97,0.09,41.64
4,0.01,0.98,0.11,44.29
4,-0.01,0.98,0.11,44.41
4,-0.08,1.10,0.12,43.63
4,-0.08,0.91,0.12,45.56
4,0.01,0.91,0.12,40.52
4,-0.06,0.99,0.16,40.52
4,-0.01,1.03,0.10,44.68
4,-0.01,1.03,0.10,48.70
4,-0.00,0.96,0.10,48.70
4,-0.10,1.08,0.16,37.90
4,-0.10,1.08,0.10,39.70
4,0.02,0.94,0.10,39.23
4,-0.02,0.98,0.13,41.58
4,-0.02,0.98,0.11,43.54
4,-0.05,1.10,0.11,50.88
4,-0.01,0.94,0.11,50.88
4,-0.01,1.02,0.17,48.82
4,-0.09,1.02,0.15,47.06
4,0.02,0.99,0.09,47.06
4,-0.00,0.97,0.11,44.46
4,-0.00,0.97,0.14,42.98
4,-0.10,1.10,0.14,42.98
4,0.01,0.92,0.11,45.89
4,0.01,0.93,0.14,42.78
4,-0.04,0.99,0.14,42.52
4,-0.03,1.05,0.09,50.35
4,-0.03,0.96,0.11,46.74
4,-0.00,0.96,0.11,35.00
4,-0.10,1.06,0.16,35.00
4,-0.11,0.94,0.11,45.06
4,0.01,0.94,0.12,48.66
4,-0.01,0.99,0.12,48.66
4,-0.07,1.09,0.12,42.77
4,-0.07,1.11,0.11,45.01
4,-0.01,0.93,0.11,44.93
4,-0.08,1.02,0.17,38.66
4,-0.08,1.01,0.09,41.54
4,-0.00,1.01,0.09,42.26
4,-0.01,0.97,0.11,42.26
4,-0.04,1.09,0.15,42.33
4,-0.10,1.09,0.17,43.64
4,0.02,0.92,0.10,43.64
4,-0.04,0.99,0.15,40.17
4,-0.04,0.99,0.10,43.99
4,-0.04,1.07,0.10,43.99
4,-0.01,0.94,0.11,40.33
4,-0.01,0.98,0.16,44.24
4,-0.09,1.04,0.16,43.85
4,0.03,0.96,0.09,43.85
4,0.03,0.97,0.12,40.47
4,-0.01,0.97,0.07,44.31
4,-0.08,1.10,0.14,44.31
4,-0.06,0.93,0.12,43.68
4,-0.00,0.93,0.17,51.77
4,-0.06,1.00,0.17,51.77
4,-0.01,1.03,0.09,45.08
4,-0.01,1.03,0.11,45.29
4,-0.01,0.96,0.11,44.62
4,-0.10,1.08,0.16,48.54
4,-0.10,0.94,0.11,41.97
4,0.02,0.94,0.11,39.84
4,-0.03,0.98,0.14,39.84
4,-0.05,1.09,0.10,35.88
4,-0.05,1.09,0.11,44.31
4,0.01,0.94,0.11,44.31
4,-0.09,1.03,0.17,37.91
4,-0.09,1.03,0.10,42.64
4,0.02,0.97,0.10,42.77
4,-0.00,0.97,0.11,45.12
4,-0.00,0.97,0.14,45.03
4,-0.08,1.09,0.14,40.46
4,0.00,0.91,0.11,40.46
4,0.00,1.00,0.16,43.38
4,-0.05,1.00,0.15,45.80
4,-0.03,1.04,0.09,45.80
4,-0.00,0.96,0.11,41.48
4,-0.00,0.96,0.16,47.94
4,-0.10,1.07,0.16,47.94
4,0.02,0.93,0.10,50.39
4,0.02,0.91,0.14,47.17
4,-0.02,0.98,0.14,47.30
4,-0.07,1.10,0.11,47.30
4,-0.07,0.93,0.12,51.06
4,-0.01,0.93,0.12,50.61
4,-0.08,1.01,0.17,50.61
4,-0.12,0.99,0.09,45.68
4,0.01,0.99,0.10,48.92
4,-0.01,0.97,0.10,48.92
4,-0.09,1.10,0.14,46.82
4,-0.09,1.11,0.11,40.18
4,0.01,0.92,0.11,40.06
4,-0.04,0.99,0.15,40.84
4,-0.04,1.06,0.09,45.66
4,-0.03,1.06,0.09,50.04
4,-0.01,0.95,0.11,50.04
4,-0.04,1.05,0.17,42.66
4,-0.10,1.05,0.16,45.49
4,0.02,0.95,0.10,45.49
4,-0.00,0.98,0.12,40.34
4,-0.00,0.98,0.12,42.71
4,-0.08,1.10,0.12,42.71
4,-0.00,0.93,0.10,39.96
4,-0.00,0.89,0.15,36.53
4,-0.07,1.02,0.15,47.76
4,0.00,1.01,0.10,47.76
4,0.00,0.97,0.11,43.54
4,-0.01,0.97,0.08,48.20
4,-0.10,1.09,0.15,48.20
4,-0.11,0.92,0.11,39.22
4,0.01,0.92,0.12,42.15
4,-0.03,0.99,0.12,42.15
4,-0.04,1.08,0.11,41.20
4,-0.04,1.12,0.11,38.90
4,-0.01,0.93,0.11,38.82
4,-0.09,1.03,0.17,43.52
4,-0.09,0.97,0.11,39.60
4,0.02,0.97,0.11,50.09
4,-0.01,0.97,0.12,50.09
4,-0.01,1.10,0.12,44.01
4,-0.07,1.10,0.12,37.62
4,0.00,0.91,0.12,37.62
4,-0.06,1.00,0.16,44.73
4,-0.06,1.00,0.09,49.08
4,-0.02,1.03,0.09,48.68
4,-0.01,0.96,0.10,43.19
4,-0.01,0.95,0.16,41.66
4,-0.09,1.07,0.16,40.37
4,0.02,0.93,0.11,40.37
4,0.02,0.98,0.13,44.90
4,-0.03,0.98,0.17,44.49
4,-0.06,1.08,0.11,44.49
4,-0.01,0.93,0.12,44.84
4,-0.01,0.93,0.17,47.83
4,-0.08,1.03,0.17,47.83
4,0.01,0.98,0.11,42.01
4,0.01,0.97,0.10,44.58
4,-0.01,0.97,0.10,44.89
4,-0.08,1.09,0.14,46.45
4,-0.08,0.91,0.11,45.64
4,0.01,0.91,0.11,42.77
4,-0.05,0.99,0.15,42.77
4,-0.02,1.05,0.10,46.74
4,-0.02,1.05,0.11,47.93
4,0.00,0.95,0.11,47.93
4,-0.09,1.07,0.16,40.97
4,-0.09,1.07,0.12,40.97
4,0.03,0.94,0.12,41.10
4,-0.02,0.98,0.13,45.02
4,-0.02,1.09,0.11,40.66
4,-0.07,1.09,0.11,39.17
4,-0.01,0.92,0.11,39.17
4,-0.01,1.01,0.16,42.19
4,-0.08,1.01,0.16,46.62
4,0.00,1.00,0.10,46.62
4,0.00,0.96,0.11,46.01
4,0.00,0.96,0.15,45.89
4,-0.09,1.09,0.15,45.89
4,0.01,0.92,0.11,43.61
4,0.01,0.93,0.15,39.98
4,-0.03,0.99,0.15,40.32
4,-0.03,1.06,0.09,46.59
4,-0.03,0.95,0.11,43.22
4,-0.01,0.95,0.11,41.99
4,-0.10,1.05,0.17,41.99
4,-0.12,0.95,0.11,38.97
4,0.00,0.95,0.10,42.08
4,-0.00,0.98,0.10,42.08
4,-0.08,1.10,0.13,47.10
4,-0.08,1.11,0.11,48.85
4,-0.01,0.92,0.11,48.71
4,-0.06,1.00,0.16,40.10
4,-0.06,1.02,0.09,44.56
4,-0.01,1.02,0.09,48.01
4,0.00,0.97,0.11,48.01
5,-0.09,1.04,0.16,46.85
5,0.01,0.96,0.10,44.50
5,0.01,0.98,0.11,41.23
5,-0.01,0.98,0.11,43.89
5,-0.09,1.10,0.13,43.89
5,-0.12,0.92,0.11,39.31
5,0.01,0.92,0.16,46.16
5,-0.06,0.99,0.16,46.16
5,-0.01,1.04,0.09,47.23
5,-0.01,1.02,0.09,48.27
5,-0.00,0.96,0.09,48.27
5,-0.09,1.07,0.15,41.22
5,-0.09,0.93,0.11,45.25
5,0.01,0.93,0.11,47.50
5,-0.02,0.98,0.13,47.50
5,-0.05,1.09,0.11,41.59
5,-0.05,1.09,0.12,43.12
5,-0.00,0.92,0.12,43.12
5,-0.08,1.02,0.16,45.12
5,-0.08,1.02,0.09,49.47
5,0.00,0.99,0.09,49.81
5,0.01,0.98,0.10,34.92
5,0.01,0.96,0.14,44.57
5,-0.09,1.09,0.14,43.00
5,0.00,0.93,0.11,43.00
5,0.00,1.00,0.15,39.41
5,-0.03,1.00,0.16,42.49
5,-0.02,1.05,0.10,42.49
5,-0.01,0.95,0.11,40.11
5,-0.01,0.95,0.18,39.68
5,-0.10,1.05,0.18,39.68
5,0.02,0.95,0.10,45.83
5,0.02,0.98,0.13,45.82
5,-0.02,0.98,0.13,46.15
5,-0.07,1.08,0.12,43.01
5,-0.07,0.93,0.12,41.68
5,-0.00,0.93,0.12,45.47
5,-0.07,1.02,0.16,45.47
5,-0.12,1.00,0.10,44.64
5,0.00,1.00,0.10,48.85
5,-0.01,0.97,0.10,48.85
5,-0.09,1.08,0.14,40.05
5,-0.09,1.08,0.11,41.58
5,0.02,0.93,0.11,41.50
5,-0.03,0.99,0.15,47.77
5,-0.03,1.07,0.10,44.15
5,-0.04,1.07,0.10,41.59
5,-0.01,0.95,0.11,41.59
5,-0.02,1.05,0.17,41.46
5,-0.08,1.05,0.17,45.86
5,0.02,0.97,0.11,45.86
5,-0.01,0.97,0.13,39.07
5,-0.01,0.97,0.14,42.50
5,-0.08,1.09,0.14,42.50
5,-0.00,0.93,0.12,53.26
5,-0.00,0.94,0.16,44.27
5,-0.06,1.00,0.16,44.35
5,-0.01,1.03,0.10,38.08
5,-0.01,0.96,0.11,41.55
5,-0.01,0.96,0.11,39.90
5,-0.10,1.07,0.16,39.90
5,-0.11,0.93,0.11,39.93
5,0.02,0.93,0.15,42.80
5,-0.02,0.98,0.15,42.80
5,-0.04,1.08,0.11,48.00
5,-0.04,1.07,0.10,41.83
5,-0.01,0.95,0.10,41.55
5,-0.08,1.04,0.17,40.76
5,-0.08,0.98,0.09,44.21
5,0.01,0.98,0.09,40.32
5,-0.00,0.97,0.10,40.32
5,-0.03,1.09,0.14,47.95
5,-0.09,1.09,0.18,41.76
5,-0.00,0.92,0.11,41.76
5,-0.05,1.00,0.15,41.59
5,-0.05,1.00,0.10,39.95
5,-0.02,1.04,0.10,40.35
5,-0.01,0.95,0.10,40.35
5,-0.01,0.94,0.17,44.64
5,-0.10,1.07,0.17,46.05
5,0.01,0.94,0.11,46.05
5,0.01,0.99,0.13,47.02
5,-0.01,0.99,0.18,47.22
5,-0.07,1.08,0.12,47.22
5,-0.08,0.93,0.11,43.65
5,-0.01,0.93,0.17,40.52
5,-0.08,1.01,0.17,40.52
5,0.01,0.99,0.09,47.61
5,0.01,0.98,0.12,45.31
5,0.00,0.98,0.12,44.66
5,-0.09,1.08,0.14,50.14
5,-0.09,0.93,0.11,48.34
5,0.01,0.93,0.11,38.39
5,-0.04,0.99,0.14,38.39
5,-0.03,1.06,0.09,41.38
5,-0.03,1.06,0.11,47.74
5,-0.00,0.95,0.11,47.74
5,-0.09,1.06,0.15,49.52
5,-0.09,1.06,0.11,38.46
5,0.02,0.95,0.11,38.76
5,-0.01,0.98,0.13,44.24
5,-0.01,1.09,0.13,50.12
5,-0.07,1.09,0.13,42.22
5,0.00,0.93,0.11,42.22
5,0.06,1.01,0.16,41.93
5,-0.07,1.01,0.15,38.84
5,-0.00,1.01,0.09,38.84
5,-0.01,0.96,0.11,38.21
5,-0.01,0.96,0.15,42.01
5,-0.10,1.08,0.15,42.01
5,0.01,0.93,0.10,42.87
5,0.01,0.93,0.14,49.10
5,-0.02,0.99,0.14,49.12
5,-0.05,1.07,0.11,49.12
5,-0.05,0.94,0.10,50.02
5,-0.01,0.94,0.11,48.47
5,-0.08,1.04,0.17,48.47
5,-0.12,0.97,0.09,40.43
5,0.01,0.97,0.12,46.51
5,-0.01,0.97,0.12,46.51
5,-0.07,1.10,0.13,41.44
5,-0.07,1.12,0.12,40.60
5,-0.00,0.93,0.12,39.96
5,-0.06,1.00,0.16,41.53
5,-0.06,1.03,0.10,43.68
5,-0.02,1.03,0.10,37.01
5,-0.01,0.96,0.11,37.01
5,-0.04,1.07,0.16,40.17
5,-0.10,1.07,0.17,40.70
5,0.01,0.93,0.11,40.70
5,-0.03,0.98,0.14,42.01
5,-0.03,0.98,0.11,37.74
5,-0.05,1.08,0.11,37.71
5,-0.00,0.93,0.11,38.49
5,-0.00,0.90,0.17,41.74
5,-0.08,1.03,0.17,41.82
5,0.00,0.99,0.10,41.82
5,0.00,0.98,0.11,44.15
5,-0.00,0.98,0.07,41.04
5,-0.09,1.10,0.14,41.04
5,-0.12,0.93,0.11,47.00
5,0.01,0.93,0.15,34.96
5,-0.05,0.99,0.15,34.96
5,-0.02,1.04,0.10,47.22
5,-0.02,1.02,0.10,48.12
5,-0.01,0.96,0.10,48.31
5,-0.10,1.07,0.15,44.40
5,-0.10,0.94,0.10,46.54
5,0.01,0.94,0.10,49.59
5,-0.02,0.98,0.13,49.59
5,-0.00,1.08,0.12,46.77
5,-0.06,1.08,0.12,45.79
5,-0.00,0.94,0.12,45.79
5,-0.07,1.02,0.16,49.78
5,-0.07,1.02,0.09,46.47
5,-0.00,1.00,0.09,46.76
5,-0.01,0.97,0.12,45.19
5,-0.01,0.96,0.15,47.97
5,-0.08,1.09,0.15,44.43
5,0.00,0.93,0.10,44.43
5,0.02,0.99,0.15,42.34
5,-0.04,0.99,0.16,48.73
5,-0.04,1.05,0.10,48.73
5,-0.01,0.95,0.11,45.66
5,-0.01,0.95,0.18,36.03
5,-0.09,1.04,0.18,36.03
5,0.01,0.96,0.09,40.23
5,0.01,0.98,0.11,44.31
5,0.00,0.98,0.11,43.39
5,-0.08,1.09,0.14,43.39
5,-0.08,0.93,0.12,42.26
5,-0.00,0.93,0.09,50.71
5,-0.05,1.02,0.16,50.71
5,-0.01,1.01,0.10,43.16
5,-0.01,1.01,0.11,42.36
5,0.00,0.97,0.11,42.36
5,-0.09,1.08,0.15,44.78
5,-0.09,1.12,0.11,43.01
5,0.00,0.93,0.11,42.72
5,-0.03,1.00,0.14,47.42
5,-0.03,1.07,0.11,43.06
5,-0.05,1.07,0.11,47.74
5,-0.01,0.94,0.10,47.74
5,-0.02,1.03,0.17,42.33
5,-0.09,1.03,0.16,38.94
5,0.01,0.97,0.10,38.94
5,-0.00,0.98,0.11,53.36
5,-0.00,0.98,0.14,44.56
5,-0.09,1.08,0.14,44.26
5,0.00,0.92,0.11,42.69
5,0.00,0.94,0.16,44.50
5,-0.07,1.00,0.16,46.38
5,-0.02,1.04,0.09,46.38
5,-0.00,0.96,0.11,39.92
5,-0.00,0.96,0.10,36.94
5,-0.08,1.07,0.16,36.94
5,0.01,0.94,0.11,43.98
5,0.01,0.94,0.13,48.98
5,-0.02,0.99,0.13,48.98
5,-0.06,1.08,0.11,44.76
5,-0.06,1.12,0.11,39.74
5,-0.01,0.94,0.11,39.63
5,-0.07,1.02,0.16,46.68
5,-0.07,0.99,0.10,48.23
5,-0.00,0.99,0.11,43.27
5,0.00,0.97,0.11,43.27
5,0.04,1.09,0.15,47.44
5,-0.08,1.09,0.10,42.12
5,0.00,0.93,0.10,42.12
5,-0.05,0.99,0.15,39.78
5,-0.05,0.99,0.10,40.66
5,-0.03,1.05,0.10,39.97
5,-0.01,0.96,0.10,45.45
5,-0.01,1.05,0.16,41.64
5,-0.09,1.05,0.16,37.12
5,0.01,0.95,0.10,37.12
5,0.04,0.98,0.14,42.14
5,-0.02,0.98,0.19,43.82
5,-0.07,1.08,0.12,43.82
5,0.00,0.94,0.12,42.33
5,0.00,0.94,0.16,41.14
5,-0.08,1.02,0.16,40.93
5,0.01,1.02,0.10,45.63
5,0.01,1.03,0.11,39.48
5,-0.01,0.97,0.11,37.10
5,-0.08,1.07,0.15,37.10
5,-0.08,0.94,0.10,48.51
5,0.01,0.94,0.07,41.32
5,-0.03,0.99,0.13,41.32
5,-0.03,1.07,0.10,49.16
5,-0.03,1.07,0.11,46.64
5,-0.01,0.94,0.11,46.64
5,-0.09,1.04,0.16,43.96
6,-0.01,1.02,0.09,46.54
6,-0.00,0.97,0.12,46.56
6,-0.00,0.97,0.16,40.02
6,-0.09,1.07,0.16,39.95
6,0.02,0.94,0.11,47.78
6,0.02,0.99,0.14,46.59
6,-0.02,0.99,0.14,45.68
6,-0.06,1.07,0.11,45.68
6,-0.06,0.93,0.10,41.89
6,-0.01,0.93,0.10,43.62
6,-0.09,1.03,0.17,43.62
6,-0.12,0.98,0.10,47.55
6,0.00,0.98,0.13,45.08
6,0.00,0.98,0.13,45.08
6,-0.08,1.08,0.14,50.67
6,-0.08,1.06,0.11,42.11
6,0.00,0.94,0.11,42.05
6,-0.05,1.00,0.17,43.62
6,-0.05,1.04,0.10,42.85
6,-0.03,1.04,0.10,38.47
6,-0.00,0.95,0.11,38.47
6,-0.02,1.06,0.16,45.12
6,-0.08,1.06,0.18,41.74
6,0.01,0.95,0.12,41.74
6,-0.02,0.98,0.13,40.65
6,-0.02,0.98,0.12,42.07
6,-0.05,1.08,0.12,41.60
6,-0.01,0.94,0.12,37.68
6,-0.01,1.02,0.16,38.00
6,-0.08,1.02,0.16,44.72
6,0.00,0.99,0.10,44.72
6,0.06,0.97,0.11,39.11
6,-0.00,0.97,0.08,44.97
6,-0.08,1.08,0.15,44.97
6,0.01,0.93,0.13,41.71
6,0.01,0.93,0.15,41.85
6,-0.05,0.99,0.15,41.85
6,-0.04,1.05,0.11,44.75
6,-0.04,1.02,0.12,41.66
6,-0.01,0.96,0.12,42.75
6,-0.09,1.04,0.16,42.75
6,-0.09,0.96,0.11,46.69
6,0.01,0.96,0.12,43.72
6,-0.01,0.99,0.12,43.72
6,-0.00,1.08,0.13,45.01
6,-0.07,1.08,0.11,42.74
6,-0.01,0.93,0.11,42.74
6,-0.07,1.01,0.17,42.30
6,-0.07,1.01,0.10,46.02
6,0.00,1.01,0.10,45.76
6,-0.01,0.96,0.10,49.68
6,-0.01,1.07,0.15,41.23
6,-0.08,1.07,0.15,44.16
6,0.01,0.93,0.11,44.16
6,0.03,1.00,0.14,44.66
6,-0.03,1.00,0.17,43.32
6,-0.04,1.07,0.11,43.32
6,-0.01,0.95,0.12,40.61
6,-0.01,0.95,0.16,45.73
6,-0.08,1.04,0.16,46.06
6,0.01,0.97,0.10,42.15
6,0.01,0.97,0.12,40.30
6,-0.00,0.97,0.12,51.41
6,-0.07,1.08,0.13,51.41
6,-0.07,0.93,0.11,47.78
6,-0.00,0.93,0.09,47.15
6,-0.05,1.00,0.16,47.15
6,-0.02,1.03,0.10,42.78
6,-0.02,1.03,0.11,48.97
6,-0.01,0.96,0.11,48.97
6,-0.09,1.06,0.16,40.20
6,-0.09,1.06,0.11,40.28
6,-0.00,0.94,0.11,40.18
6,-0.02,0.99,0.13,44.10
6,-0.02,1.07,0.11,44.90
6,-0.05,1.07,0.11,49.63
6,-0.01,0.94,0.12,49.63
6,-0.01,1.03,0.16,45.17
6,-0.08,1.03,0.17,43.41
6,0.00,0.99,0.10,43.41
6,-0.00,0.96,0.12,45.68
6,-0.00,0.95,0.15,43.91
6,-0.08,1.08,0.15,44.32
6,0.00,0.93,0.12,38.05
6,0.00,1.00,0.15,41.59
6,-0.05,1.00,0.15,42.75
6,-0.03,1.04,0.10,42.75
6,-0.00,0.96,0.11,55.86
6,-0.00,0.96,0.11,42.59
6,-0.09,1.06,0.17,42.59
6,0.01,0.95,0.10,43.00
6,0.01,0.95,0.12,43.23
6,-0.01,0.99,0.12,43.23
6,-0.06,1.08,0.12,40.21
6,-0.06,1.12,0.12,46.74
6,-0.01,0.93,0.12,44.92
6,-0.07,1.01,0.17,44.92
6,-0.07,1.00,0.11,48.71
6,-0.01,1.00,0.11,41.54
6,-0.01,0.97,0.11,41.54
6,-0.03,1.07,0.15,44.30
6,-0.09,1.07,0.11,44.80
6,0.00,0.94,0.11,44.80
6,-0.04,0.99,0.14,45.17
6,-0.04,0.99,0.11,40.21
6,-0.03,1.06,0.11,40.18
6,-0.01,0.96,0.11,44.10
6,-0.01,1.04,0.17,45.25
6,-0.09,1.04,0.17,41.44
6,0.01,0.96,0.10,41.44
6,0.05,0.98,0.12,41.78
6,-0.02,0.98,0.07,45.58
6,-0.07,1.08,0.13,45.58
6,-0.01,0.93,0.12,45.63
6,-0.01,0.93,0.15,50.11
6,-0.06,1.00,0.15,50.77
6,-0.00,1.03,0.10,49.98
6,-0.00,1.03,0.12,46.94
6,-0.00,0.96,0.12,44.06
6,-0.08,1.07,0.16,44.06
6,-0.08,0.94,0.11,42.46
6,0.01,0.94,0.08,41.47
6,-0.02,0.99,0.14,41.47
6,-0.04,1.07,0.10,43.11
6,-0.04,1.07,0.13,37.78
6,-0.00,0.95,0.13,37.78
6,-0.07,1.04,0.16,38.22
6,-0.07,1.04,0.09,42.88
6,0.01,0.98,0.09,42.61
6,0.00,0.98,0.11,44.18
6,0.00,1.08,0.14,47.11
6,-0.08,1.08,0.14,46.95
6,0.00,0.95,0.11,46.95
6,0.01,1.01,0.16,46.86
6,-0.05,1.01,0.11,48.22
6,-0.02,1.03,0.11,48.22
6,-0.00,0.97,0.11,38.97
6,-0.00,1.00,0.16,41.56
6,-0.09,1.06,0.16,41.75
6,0.01,0.95,0.10,44.10
6,0.01,0.99,0.13,39.53
6,-0.02,0.99,0.13,40.56
6,-0.06,1.08,0.12,40.56
6,-0.01,0.94,0.11,46.43
6,-0.01,0.94,0.10,50.22
6,-0.08,1.03,0.16,50.22
6,0.01,0.98,0.10,47.65
6,0.01,0.98,0.11,48.91
6,-0.01,0.97,0.11,48.91
6,-0.08,1.07,0.14,40.90
6,-0.08,1.12,0.11,46.32
6,0.00,0.93,0.11,39.82
6,-0.05,1.00,0.15,39.82
6,-0.05,1.05,0.10,53.27
6,-0.03,1.05,0.11,44.94
6,-0.01,0.96,0.11,44.94
6,-0.03,1.04,0.16,42.37
6,-0.09,1.04,0.10,42.02
6,0.01,0.96,0.10,42.02
6,-0.01,0.98,0.13,43.30
6,-0.01,0.95,0.13,45.33
6,-0.07,1.08,0.13,44.83
6,-0.00,0.94,0.12,44.83
6,-0.00,1.01,0.17,42.38
6,-0.06,1.01,0.17,50.98
6,0.00,1.01,0.10,50.98
6,0.06,0.96,0.11,44.97
6,-0.00,0.96,0.09,41.55
6,-0.09,1.07,0.15,41.55
6,0.01,0.94,0.11,45.40
6,0.01,0.94,0.14,43.66
6,-0.04,0.99,0.14,43.12
6,-0.04,1.06,0.10,54.08
6,-0.04,1.02,0.12,48.68
6,-0.01,0.95,0.12,46.46
6,-0.09,1.03,0.16,46.46
6,-0.09,0.97,0.11,45.47
6,0.01,0.97,0.12,41.21
6,-0.01,0.98,0.12,41.21
6,-0.00,1.08,0.13,42.83
6,-0.06,1.08,0.11,44.16
6,-0.00,0.92,0.11,44.16
6,-0.06,1.01,0.16,39.72
6,-0.06,1.01,0.10,41.63
6,-0.02,1.01,0.10,41.99
6,-0.01,0.96,0.11,43.55
6,-0.01,1.06,0.16,40.96
6,-0.08,1.06,0.16,42.71
6,0.01,0.94,0.10,42.71
6,0.03,0.99,0.14,39.12
6,-0.03,0.99,0.17,43.94
6,-0.04,1.07,0.11,43.94
6,-0.01,0.94,0.13,42.17
6,-0.01,0.94,0.17,43.38
6,-0.08,1.04,0.17,43.40
6,0.01,0.99,0.11,41.84
6,0.01,0.98,0.12,41.76
6,-0.01,0.98,0.12,43.21
6,-0.08,1.07,0.14,43.21
6,-0.12,0.94,0.11,47.14
6,0.01,0.94,0.08,48.08
6,-0.05,1.00,0.15,48.08
6,-0.02,1.05,0.10,43.47
6,-0.02,1.05,0.11,45.12
6,-0.01,0.97,0.11,45.12
6,-0.08,1.05,0.14,42.71
6,-0.08,1.01,0.11,42.47
6,0.01,0.95,0.11,40.32
6,-0.01,0.99,0.13,40.32
6,-0.01,1.07,0.12,47.20
6,-0.05,1.07,0.12,43.97
6,-0.01,0.94,0.12,43.97
6,-0.02,1.02,0.16,49.83
6,-0.08,1.02,0.11,42.52
6,0.01,1.00,0.11,42.52
6,-0.00,0.97,0.11,42.20
6,-0.00,0.94,0.14,40.17
6,-0.08,1.07,0.14,40.30
6,0.00,0.93,0.11,46.56
6,0.00,0.99,0.14,36.43
6,-0.04,0.99,0.14,40.93
6,-0.03,1.05,0.11,40.93
6,-0.01,0.96,0.12,44.37
6,-0.01,0.96,0.10,43.95
6,-0.08,1.04,0.16,43.95
6,0.01,0.96,0.11,39.09
6,0.01,0.96,0.12,41.70
6,-0.02,0.97,0.12,41.75
6,-0.07,1.08,0.14,42.53
6,-0.07,1.07,0.11,37.74
6,0.00,0.94,0.11,39.63
6,-0.07,1.00,0.16,39.63
6,-0.07,1.01,0.10,46.12
7,-0.00,0.94,0.13,42.70
7,-0.00,1.04,0.16,42.33
7,-0.08,1.04,0.17,45.00
7,0.01,0.98,0.11,45.00
7,0.06,0.98,0.11,38.56
7,-0.01,0.98,0.13,47.10
7,-0.06,1.07,0.13,47.10
7,-0.00,0.95,0.12,45.45
7,-0.00,0.95,0.15,37.99
7,-0.05,1.01,0.15,37.86
7,-0.02,1.02,0.10,39.42
7,-0.02,0.96,0.11,45.06
7,-0.01,0.96,0.11,41.55
7,-0.08,1.05,0.15,41.55
7,-0.12,0.94,0.11,36.80
7,0.01,0.94,0.08,40.26
7,-0.02,0.99,0.14,40.26
7,-0.05,1.07,0.11,36.59
7,-0.05,1.07,0.12,41.52
7,-0.00,0.94,0.12,41.83
7,-0.07,1.03,0.16,41.83
7,-0.07,1.05,0.10,42.06
7,0.00,0.99,0.10,46.05
7,-0.02,0.97,0.12,46.05
7,-0.01,1.08,0.14,44.79
7,-0.08,1.08,0.18,38.80
7,-0.01,0.94,0.12,38.80
7,-0.05,0.99,0.16,42.02
7,-0.05,0.99,0.10,42.40
7,-0.03,1.05,0.10,42.40
7,-0.00,0.96,0.12,38.57
7,-0.00,0.99,0.16,49.28
7,-0.08,1.06,0.16,49.06
7,0.00,0.96,0.10,44.36
7,0.00,0.99,0.13,45.75
7,-0.02,0.99,0.13,46.10
7,-0.06,1.07,0.13,46.10
7,-0.01,0.94,0.11,45.31
7,-0.01,0.94,0.16,46.61
7,-0.07,1.03,0.16,46.61
7,0.00,1.00,0.10,39.44
7,0.00,0.97,0.11,39.74
7,-0.00,0.97,0.11,39.45
7,-0.07,1.07,0.14,46.50
7,-0.07,0.94,0.12,47.96
7,0.00,0.94,0.12,41.57
7,-0.03,0.99,0.13,41.57
7,-0.03,1.05,0.11,48.49
7,-0.03,1.05,0.12,38.29
7,-0.01,0.96,0.12,38.29
7,-0.09,1.04,0.16,42.15
7,-0.09,1.04,0.10,46.03
7,-0.00,0.97,0.10,45.83
7,-0.01,0.98,0.12,41.13
7,-0.01,0.96,0.13,40.11
7,-0.06,1.08,0.13,41.84
7,0.00,0.95,0.11,41.84
7,0.00,1.01,0.16,45.56
7,-0.06,1.01,0.17,43.83
7,-0.02,1.02,0.10,43.83
7,-0.01,0.96,0.11,45.45
7,-0.01,0.96,0.16,44.15
7,-0.09,1.06,0.16,44.15
7,0.01,0.95,0.12,45.02
7,0.01,0.98,0.14,41.17
7,-0.03,0.98,0.14,40.70
7,-0.05,1.06,0.11,43.83
7,-0.05,0.95,0.12,41.88
7,-0.01,0.95,0.12,43.50
7,-0.09,1.03,0.16,43.50
7,-0.12,0.98,0.10,42.48
7,0.00,0.98,0.11,42.69
7,0.00,0.98,0.11,42.69
7,-0.07,1.07,0.15,37.09
7,-0.07,1.07,0.13,41.88
7,0.01,0.95,0.13,41.57
7,-0.05,1.00,0.15,49.40
7,-0.05,0.97,0.11,44.11
7,-0.02,1.03,0.11,42.64
7,-0.01,0.96,0.11,42.64
7,-0.02,1.05,0.15,43.95
7,-0.08,1.05,0.17,46.26
7,0.00,0.96,0.11,46.26
7,-0.02,0.98,0.13,47.21
7,-0.02,0.98,0.12,49.63
7,-0.05,1.07,0.12,49.63
7,-0.00,0.93,0.11,48.33
7,-0.00,0.89,0.16,41.96
7,-0.08,1.02,0.16,41.97
7,-0.00,1.00,0.10,39.62
7,-0.00,0.97,0.12,44.49
7,-0.01,0.97,0.08,46.49
7,-0.07,1.07,0.14,46.49
7,-0.06,0.93,0.11,43.73
7,-0.00,0.93,0.15,40.77
7,-0.05,0.99,0.15,40.77
7,-0.02,1.04,0.12,38.26
7,-0.02,1.03,0.11,37.48
7,-0.00,0.96,0.11,37.16
7,-0.08,1.04,0.16,45.00
7,-0.08,0.96,0.10,40.58
7,0.00,0.96,0.10,50.22
7,-0.02,0.98,0.12,50.22
7,-0.06,1.07,0.13,43.02
7,-0.06,1.07,0.18,41.92
7,-0.02,0.94,0.12,41.92
7,-0.06,1.01,0.15,44.04
7,-0.06,1.01,0.10,44.76
7,-0.01,1.02,0.10,44.85
7,-0.01,0.97,0.12,37.80
7,-0.01,1.06,0.15,46.31
7,-0.08,1.06,0.15,47.22
7,-0.00,0.95,0.10,47.22
7,-0.03,0.99,0.15,48.60
7,-0.03,0.99,0.17,41.71
7,-0.05,1.05,0.11,41.71
7,-0.01,0.96,0.11,46.11
7,-0.01,0.96,0.16,42.44
7,-0.08,1.04,0.16,42.90
7,0.01,0.97,0.10,43.68
7,0.01,0.98,0.11,40.88
7,-0.02,0.98,0.11,45.65
7,-0.08,1.08,0.13,45.65
7,-0.08,0.95,0.12,45.10
7,0.00,0.95,0.09,43.67
7,-0.06,1.02,0.15,43.67
7,-0.03,1.02,0.10,49.33
7,-0.03,1.02,0.11,43.28
7,-0.01,0.98,0.11,43.28
7,-0.09,1.06,0.15,44.61
7,-0.09,1.08,0.11,50.02
7,0.01,0.95,0.11,49.77
7,-0.03,0.99,0.13,41.15
7,-0.03,1.06,0.11,39.12
7,-0.05,1.06,0.11,43.55
7,-0.01,0.95,0.11,43.55
7,-0.01,1.03,0.16,52.27
7,-0.08,1.03,0.11,46.43
7,-0.01,0.98,0.11,46.43
7,-0.01,0.98,0.11,49.63
7,-0.01,0.95,0.15,51.47
7,-0.08,1.08,0.15,51.06
7,0.01,0.95,0.11,42.44
7,0.01,1.00,0.15,40.56
7,-0.05,1.00,0.15,48.37
7,-0.03,1.03,0.11,48.37
7,-0.00,0.96,0.12,42.54
7,-0.00,0.96,0.09,40.80
7,-0.09,1.04,0.15,40.80
7,0.01,0.97,0.11,38.02
7,0.01,0.97,0.12,46.51
7,-0.02,0.99,0.12,46.26
7,-0.05,1.07,0.13,36.86
7,-0.05,1.07,0.11,44.43
7,-0.01,0.94,0.11,39.84
7,-0.07,1.02,0.16,39.84
7,-0.07,1.00,0.10,44.76
7,-0.00,1.00,0.11,51.77
7,-0.00,0.97,0.11,51.77
7,-0.07,1.07,0.14,41.26
7,-0.07,1.07,0.11,40.33
7,0.00,0.95,0.11,40.33
7,-0.05,0.99,0.15,38.02
7,-0.05,0.98,0.10,38.46
7,-0.04,1.05,0.10,38.39
7,-0.01,0.95,0.11,38.39
7,-0.01,1.04,0.15,42.62
7,-0.08,1.04,0.16,40.99
7,0.00,0.97,0.09,40.99
7,0.05,0.98,0.12,47.98
7,-0.02,0.98,0.13,44.31
7,-0.06,1.06,0.13,44.31
7,0.00,0.95,0.11,43.94
7,0.00,0.95,0.15,40.82
7,-0.06,1.02,0.15,40.88
7,-0.02,1.00,0.09,40.88
7,-0.02,0.97,0.11,47.34
7,-0.00,0.97,0.11,41.70
7,-0.08,1.06,0.15,41.70
7,-0.12,0.96,0.11,41.80
7,0.00,0.96,0.14,42.80
7,-0.03,0.99,0.14,42.80
7,-0.04,1.05,0.12,39.65
7,-0.04,1.01,0.11,39.77
7,-0.00,0.95,0.11,39.38
7,-0.07,1.03,0.16,40.17
7,-0.07,0.98,0.10,37.67
7,0.01,0.98,0.10,45.73
7,-0.02,0.98,0.12,45.73
7,-0.00,1.07,0.15,46.42
7,-0.07,1.07,0.17,44.95
7,-0.00,0.93,0.10,44.95
7,-0.06,1.01,0.15,50.46
7,-0.06,1.01,0.11,38.40
7,-0.02,1.02,0.11,38.77
7,-0.02,0.96,0.11,40.34
7,-0.02,1.00,0.15,53.56
7,-0.08,1.06,0.15,45.47
7,0.01,0.96,0.10,45.47
7,0.04,0.98,0.14,48.80
7,-0.02,0.98,0.18,42.67
7,-0.04,1.06,0.12,42.67
7,-0.02,0.95,0.13,42.56
7,-0.02,0.95,0.16,43.21
7,-0.06,1.02,0.16,43.21
7,-0.01,0.98,0.10,49.42
7,-0.01,0.97,0.12,41.98
7,-0.01,0.97,0.12,43.48
7,-0.07,1.07,0.13,43.48
7,-0.07,0.94,0.10,41.12
7,-0.01,0.94,0.08,37.45
7,-0.04,1.00,0.14,37.45
7,-0.02,1.04,0.10,41.75
7,-0.02,1.04,0.11,48.77
7,-0.00,0.96,0.11,48.77
7,-0.09,1.05,0.16,44.06
7,-0.09,1.03,0.11,39.26
7,0.00,0.96,0.11,39.57
7,-0.02,0.98,0.13,42.71
7,-0.02,1.07,0.13,44.36
7,-0.06,1.07,0.13,46.03
7,-0.01,0.94,0.12,46.03
7,-0.00,1.02,0.16,46.71
7,-0.07,1.02,0.16,42.56
7,-0.01,1.01,0.09,42.56
7,-0.00,0.98,0.11,44.33
7,-0.00,0.94,0.15,41.83
7,-0.07,1.07,0.15,42.12
7,0.01,0.95,0.11,41.33
7,0.01,0.99,0.14,45.10
7,-0.03,0.99,0.14,44.58
7,-0.04,1.05,0.11,44.58
8,-0.01,0.94,0.11,44.69
8,-0.07,1.02,0.15,44.69
8,-0.08,1.01,0.10,42.57
8,-0.02,1.01,0.11,41.57
8,-0.01,0.97,0.11,41.57
8,-0.08,1.06,0.14,45.34
8,-0.08,1.06,0.11,47.15
8,-0.00,0.96,0.11,47.15
8,-0.03,1.00,0.14,39.37
8,-0.03,0.99,0.12,47.44
8,-0.05,1.05,0.12,47.22
8,-0.01,0.95,0.13,45.66
8,-0.01,1.03,0.15,44.95
8,-0.08,1.03,0.17,45.42
8,-0.01,0.99,0.11,45.42
8,-0.06,0.98,0.12,37.97
8,0.00,0.98,0.14,49.26
8,-0.07,1.07,0.14,49.26
8,-0.00,0.95,0.11,46.85
8,-0.00,0.94,0.15,39.30
8,-0.05,1.00,0.15,39.48
8,-0.03,1.03,0.10,42.61
8,-0.03,0.97,0.11,39.59
8,-0.01,0.97,0.11,42.41
8,-0.08,1.05,0.16,42.41
8,-0.06,0.95,0.10,40.29
8,-0.00,0.95,0.07,41.40
8,-0.02,0.99,0.13,41.40
8,-0.05,1.06,0.12,41.81
8,-0.05,1.06,0.11,39.67
8,-0.01,0.94,0.11,39.87
8,-0.06,1.03,0.15,52.41
8,-0.06,1.00,0.10,43.25
8,-0.01,1.00,0.10,42.23
8,-0.01,0.97,0.12,42.23
8,-0.02,1.05,0.13,43.09
8,-0.08,1.05,0.17,39.16
8,-0.00,0.95,0.11,39.16
8,-0.04,1.00,0.16,44.18
8,-0.04,1.00,0.11,41.81
8,-0.03,1.04,0.11,41.94
8,-0.00,0.96,0.11,41.94
8,-0.00,0.99,0.15,45.55
8,-0.07,1.05,0.15,35.79
8,0.00,0.97,0.11,35.79
8,0.00,0.98,0.12,46.00
8,-0.02,0.98,0.07,38.56
8,-0.06,1.07,0.14,38.56
8,-0.00,0.94,0.11,41.99
8,-0.00,0.94,0.16,46.12
8,-0.06,1.00,0.16,46.12
8,-0.01,1.00,0.11,46.85
8,-0.01,1.04,0.10,48.66
8,-0.00,0.98,0.10,49.03
8,-0.07,1.07,0.14,42.77
8,-0.07,0.96,0.11,52.93
8,0.00,0.96,0.08,44.40
8,-0.04,0.99,0.14,44.40
8,-0.04,1.04,0.11,41.38
8,-0.04,1.04,0.11,38.88
8,-0.01,0.96,0.11,38.88
8,-0.08,1.03,0.17,43.19
8,-0.08,1.04,0.11,48.41
8,-0.00,0.98,0.11,47.78
8,-0.01,0.98,0.11,39.16
8,-0.01,1.06,0.12,42.49
8,-0.07,1.06,0.12,40.83
8,0.00,0.95,0.11,40.83
8,0.01,1.01,0.14,47.52
8,-0.05,1.01,0.17,39.19
8,-0.02,1.02,0.10,39.19
8,-0.01,0.96,0.12,43.39
8,-0.01,0.96,0.16,48.27
8,-0.09,1.05,0.16,48.44
8,0.01,0.96,0.11,42.17
8,0.01,0.98,0.13,40.92
8,-0.03,0.98,0.13,39.01
8,-0.05,1.05,0.12,39.01
8,-0.01,0.95,0.11,43.19
8,-0.01,0.95,0.10,43.87
8,-0.07,1.02,0.16,43.87
8,-0.01,0.99,0.11,42.20
8,-0.01,0.99,0.12,46.08
8,-0.02,0.97,0.12,46.08
8,-0.06,1.07,0.14,49.02
8,-0.06,1.07,0.11,42.94
8,-0.01,0.94,0.11,39.49
8,-0.04,1.00,0.15,39.49
8,-0.04,1.03,0.10,39.81
8,-0.03,1.03,0.11,39.82
8,0.01,0.96,0.11,39.82
8,0.04,1.05,0.15,44.20
8,-0.08,1.05,0.10,41.19
8,-0.00,0.96,0.10,41.19
8,-0.02,0.99,0.13,51.28
8,-0.02,1.00,0.11,48.31
8,-0.06,1.06,0.11,48.44
8,-0.01,0.94,0.12,35.12
8,-0.01,1.02,0.16,47.37
8,-0.07,1.02,0.16,38.05
8,-0.00,1.00,0.10,38.05
8,-0.01,0.98,0.12,42.82
8,-0.01,0.98,0.15,39.09
8,-0.09,1.05,0.15,39.09
8,-0.00,0.95,0.11,44.93
8,-0.00,1.00,0.14,42.55
8,-0.04,1.00,0.14,42.37
8,-0.03,1.04,0.12,41.59
8,-0.03,0.96,0.11,40.33
8,-0.01,0.96,0.11,36.77
8,-0.07,1.05,0.16,36.77
8,-0.12,0.97,0.10,42.68
8,0.01,0.97,0.12,43.19
8,-0.02,0.99,0.12,43.19
8,-0.07,1.07,0.13,37.85
8,-0.07,1.07,0.11,34.32
8,-0.01,0.95,0.11,34.07
8,-0.06,1.01,0.16,45.82
8,-0.06,1.02,0.11,45.13
8,-0.01,1.02,0.11,38.36
8,-0.01,0.97,0.11,38.36
8,-0.01,1.05,0.15,38.75
8,-0.08,1.05,0.17,43.40
8,0.00,0.95,0.11,43.40
8,-0.03,0.99,0.14,49.90
8,-0.03,0.99,0.12,40.80
8,-0.04,1.05,0.12,40.80
8,-0.01,0.97,0.12,41.75
8,-0.01,0.97,0.16,41.02
8,-0.08,1.03,0.16,46.20
8,0.00,0.98,0.09,46.20
8,0.00,0.97,0.12,40.77
8,-0.01,0.97,0.08,44.30
8,-0.08,1.06,0.14,44.30
8,-0.07,0.95,0.10,46.73
8,-0.00,0.95,0.15,42.27
8,-0.06,1.01,0.15,42.27
8,-0.02,1.03,0.11,46.27
8,-0.02,1.02,0.11,42.09
8,-0.01,0.96,0.11,42.18
8,-0.08,1.05,0.15,36.70
8,-0.08,0.96,0.10,45.30
8,0.00,0.96,0.10,43.41
8,-0.03,1.00,0.13,43.41
8,-0.05,1.05,0.12,36.57
8,-0.05,1.05,0.11,42.01
8,-0.01,0.94,0.11,42.01
8,-0.07,1.02,0.15,37.91
8,-0.07,1.05,0.11,48.54
8,-0.01,0.99,0.11,48.51
8,-0.02,0.98,0.11,40.68
8,-0.02,1.06,0.13,40.83
8,-0.07,1.06,0.13,36.74
8,0.00,0.95,0.10,36.74
8,0.01,1.00,0.16,43.97
8,-0.05,1.00,0.18,50.15
8,-0.03,1.04,0.11,50.15
8,-0.01,0.96,0.11,46.05
8,-0.01,0.96,0.16,37.92
8,-0.08,1.05,0.16,38.16
8,0.00,0.97,0.10,42.08
8,0.00,0.98,0.13,46.40
8,-0.02,0.98,0.13,40.88
8,-0.05,1.06,0.13,40.88
8,-0.05,0.95,0.12,48.82
8,-0.01,0.95,0.09,47.12
8,-0.07,1.01,0.15,47.12
8,-0.01,1.00,0.10,40.77
8,-0.01,1.00,0.11,48.08
8,-0.01,0.97,0.11,48.08
8,-0.08,1.06,0.14,48.34
8,-0.08,1.08,0.11,47.81
8,-0.00,0.95,0.11,48.07
8,-0.04,0.99,0.14,41.02
8,-0.04,1.04,0.11,47.41
8,-0.04,1.04,0.11,40.18
8,-0.01,0.96,0.11,40.18
8,-0.01,1.03,0.15,42.06
8,-0.07,1.03,0.11,41.55
8,-0.00,0.97,0.11,41.55
8,-0.02,0.98,0.13,41.97
8,-0.02,0.99,0.14,41.40
8,-0.06,1.06,0.14,41.38
8,-0.00,0.95,0.11,46.08
8,-0.00,1.01,0.16,43.85
8,-0.05,1.01,0.16,38.42
8,-0.02,1.01,0.10,38.42
8,-0.00,0.97,0.12,42.56
8,-0.00,0.97,0.09,43.03
8,-0.08,1.05,0.15,43.03
8,0.00,0.97,0.12,41.79
8,0.00,0.99,0.13,39.96
8,-0.02,0.99,0.13,39.90
                                                                                                                                                                                                                                                                                                                                                                                                                                                                                                                                                                                                                                                                                                                                                                                                                                                                                                                                                                                                                                                                                                                                                                                                                                                                                                                                                                                                                                                                                                                                                                                                                                                                                                                                                                                                                                                                                                                                                                                                                                                                                                                                                                                                                                                                                                                                                                                                                                                                                                                                                                                                                                                                                                                                                                                                                                                                                                                                                                                                                                                                                                                                                                                                                                                                                                                                                                                                                                                                                                                                                                                                                                                                                                                                                                                                                                                                                                                                                                                                                                                                                                                                                                                                                                                                                                                                                                                                                                                                                                                                                                                                                                                                                                                                                                                                                                                                                                                                                                                                                                                                                                                                                                                                                                                                                                                                                                                                                                                                                                                                                                                                                                                                                                                                                                                                                                                                                                                                                                                                                                                                                                                                                                                                                                                                                                                                                                                                                                                                                                                                                                                                                                                                                                                                                                             10,-0.06,1.02,0.17,43.76
10,-0.01,0.99,0.11,43.76
10,-0.02,0.98,0.13,36.31
10,-0.02,0.98,0.14,41.73
10,-0.07,1.06,0.14,41.73
10,-0.01,0.96,0.11,44.04
10,-0.01,0.94,0.14,43.80
10,-0.04,1.01,0.14,44.09
10,-0.03,1.03,0.12,48.79
10,-0.03,0.97,0.11,38.76
10,0.01,0.97,0.09,44.01
10,-0.07,1.04,0.15,44.01
10,-0.07,0.97,0.12,43.45
10,-0.01,0.97,0.12,42.94
10,-0.01,0.98,0.12,42.94
10,-0.05,1.05,0.13,42.39
10,-0.05,1.02,0.12,38.99
10,-0.01,0.96,0.12,38.66
10,-0.06,1.01,0.15,45.71
10,-0.06,1.01,0.10,44.26
10,-0.01,1.01,0.10,42.74
10,-0.00,0.97,0.11,42.74
10,-0.00,1.05,0.13,44.20
10,-0.07,1.05,0.17,40.24
10,-0.00,0.96,0.11,40.24
10,-0.04,1.01,0.14,40.62
10,-0.04,1.01,0.12,47.93
10,-0.03,1.04,0.12,47.73
10,-0.01,0.96,0.12,43.03
10,-0.01,0.96,0.15,46.87
10,-0.06,1.03,0.15,43.84
10,-0.00,0.98,0.11,43.84
10,-0.00,0.99,0.12,43.23
10,-0.02,0.99,0.07,40.88
10,-0.06,1.05,0.13,40.88
10,-0.01,0.97,0.13,43.66
10,-0.01,0.97,0.15,42.99
10,-0.05,1.01,0.15,42.99
10,-0.03,1.02,0.11,44.19
10,-0.03,1.03,0.12,43.80
10,0.00,0.97,0.12,43.29
10,-0.07,1.05,0.13,42.51
10,-0.07,0.97,0.10,43.69
10,0.00,0.97,0.10,41.91
10,-0.03,0.99,0.13,41.91
10,-0.03,1.06,0.13,39.06
10,-0.03,1.06,0.18,46.23
10,-0.02,0.96,0.11,46.23
10,-0.07,1.02,0.16,38.79
10,-0.07,1.05,0.10,44.09
10,-0.01,0.99,0.10,44.52
10,-0.03,0.98,0.11,42.17
10,-0.03,1.05,0.14,40.17
10,-0.07,1.05,0.14,47.77
10,-0.00,0.96,0.11,47.77
10,-0.05,1.00,0.14,41.53
10,-0.05,1.00,0.17,44.19
10,-0.02,1.02,0.11,44.19
10,-0.01,0.96,0.11,44.08
10,-0.01,0.96,0.14,44.68
10,-0.07,1.04,0.14,45.00
10,-0.00,0.97,0.11,42.65
10,-0.00,0.99,0.13,53.07
10,-0.03,0.99,0.13,39.35
10,-0.05,1.05,0.13,39.35
10,-0.05,0.95,0.11,42.28
10,-0.01,0.95,0.08,44.43
10,-0.06,1.01,0.14,44.43
10,-0.01,1.00,0.10,35.36
10,-0.01,1.00,0.12,51.32
10,-0.01,0.98,0.12,51.32
10,-0.07,1.05,0.14,51.78
10,-0.07,1.02,0.10,43.03
10,-0.00,0.96,0.10,43.21
10,-0.04,1.01,0.14,47.91
10,-0.04,1.04,0.11,44.91
10,-0.04,1.04,0.11,38.71
10,-0.00,0.96,0.11,38.71
10,-0.00,1.03,0.15,47.52
10,-0.07,1.03,0.18,47.72
10,-0.01,0.98,0.11,47.72
10,-0.02,0.99,0.14,43.67
10,-0.02,0.99,0.13,42.64
10,-0.04,1.05,0.13,42.23
10,-0.00,0.96,0.12,41.45
10,-0.00,0.95,0.14,46.13
10,-0.06,1.01,0.14,42.64
10,-0.02,1.01,0.11,42.64
10,-0.02,0.98,0.13,38.26
10,-0.01,0.98,0.14,41.84
10,-0.07,1.04,0.14,41.84
10,-0.00,0.96,0.12,42.85
10,-0.00,0.96,0.14,41.73
10,-0.04,1.00,0.14,41.73
10,-0.04,1.03,0.11,48.25
10,-0.04,1.03,0.12,41.43
10,-0.01,0.96,0.12,41.37
10,-0.07,1.04,0.15,44.51
10,-0.07,0.99,0.11,41.14
10,-0.01,0.99,0.11,49.53
10,-0.02,0.98,0.13,49.53
10,-0.06,1.06,0.14,43.13
10,-0.06,1.06,0.16,48.25
10,-0.01,0.96,0.10,48.25
10,-0.06,1.00,0.15,42.21
10,-0.06,0.96,0.11,46.88
10,-0.02,1.02,0.11,46.78
10,-0.01,0.97,0.12,45.22
10,-0.01,1.04,0.15,42.45
10,-0.08,1.04,0.15,44.70
10,-0.01,0.96,0.10,44.70
10,-0.03,0.99,0.13,43.78
10,-0.03,0.99,0.13,44.58
10,-0.04,1.04,0.13,44.58
10,-0.01,0.95,0.11,39.29
10,-0.01,0.95,0.14,42.66
10,-0.07,1.02,0.14,42.73
10,-0.01,0.99,0.10,48.21
10,-0.01,0.98,0.11,47.74
10,-0.02,0.98,0.11,47.28
10,-0.07,1.05,0.14,47.28
10,-0.07,0.96,0.11,46.28
10,-0.00,0.96,0.07,43.52
10,-0.05,1.01,0.14,43.52
10,-0.02,1.02,0.10,42.78
10,-0.02,1.02,0.12,39.83
10,-0.01,0.97,0.12,39.83
10,-0.06,1.04,0.15,37.42
10,-0.06,1.04,0.12,38.43
10,-0.00,0.98,0.12,38.38
10,-0.02,0.98,0.12,45.43
10,-0.02,1.04,0.13,44.95
10,-0.05,1.04,0.13,44.24
10,-0.01,0.96,0.12,44.24
10,-0.05,1.01,0.15,45.97
10,-0.05,1.01,0.16,44.81
10,-0.01,1.01,0.10,44.81
10,-0.02,0.97,0.12,41.89
10,-0.02,0.97,0.14,48.26
10,-0.06,1.05,0.14,48.44
10,-0.01,0.96,0.11,43.74
10,-0.01,0.99,0.14,46.18
10,-0.03,0.99,0.14,43.95
10,-0.03,1.04,0.11,43.95
10,-0.01,0.96,0.12,51.73
10,-0.01,0.96,0.09,41.25
10,-0.06,1.04,0.15,41.25
10,-0.01,0.98,0.11,41.01
10,-0.01,0.98,0.12,40.98
10,-0.01,0.98,0.12,40.98
10,-0.05,1.04,0.13,50.92
10,-0.05,1.02,0.11,49.94
10,0.00,0.96,0.11,49.55
10,-0.04,1.01,0.15,46.41
10,-0.04,1.01,0.11,44.48
10,-0.02,1.01,0.11,47.09
10,-0.02,0.97,0.11,47.09
10,-0.01,1.05,0.15,43.31
10,-0.07,1.05,0.17,38.30
10,-0.01,0.96,0.11,38.30
10,-0.03,0.99,0.15,40.16
10,-0.03,0.98,0.12,47.51
10,-0.04,1.04,0.12,47.65
10,-0.01,0.96,0.11,45.30
10,-0.01,1.03,0.15,45.67
10,-0.07,1.03,0.15,40.35
10,-0.01,0.98,0.11,40.35
10,-0.01,0.97,0.11,43.02
10,-0.01,0.97,0.07,44.42
10,-0.06,1.05,0.14,44.42
10,-0.01,0.95,0.11,44.65
10,-0.01,0.95,0.14,44.43
10,-0.05,1.00,0.14,43.93
10,-0.03,1.02,0.11,43.93
10,-0.03,1.03,0.12,44.20
10,-0.01,0.97,0.12,45.02
10,-0.07,1.04,0.14,45.02
10,-0.07,0.98,0.12,42.16
10,-0.01,0.98,0.08,35.95
10,-0.03,0.99,0.14,35.95
10,-0.05,1.04,0.13,45.13
10,-0.05,1.04,0.11,41.48
10,-0.01,0.96,0.11,41.48
10,-0.05,1.02,0.14,38.84
10,-0.05,1.06,0.11,39.90
10,-0.01,1.00,0.11,39.95
10,-0.02,0.97,0.11,43.08
10,-0.02,1.04,0.14,46.91
10,-0.06,1.04,0.14,40.89
10,-0.01,0.96,0.11,40.89
10,-0.04,1.01,0.14,46.01
10,-0.04,1.01,0.18,43.18
10,-0.02,1.02,0.12,43.18
10,-0.01,0.97,0.12,43.38
10,-0.01,0.97,0.15,39.04
10,-0.07,1.04,0.15,38.87
10,-0.00,0.97,0.11,39.66
10,-0.00,0.99,0.13,39.78
11,-0.06,1.04,0.13,44.72
11,-0.06,0.97,0.11,45.03
11,-0.00,0.97,0.07,49.28
11,-0.04,1.00,0.13,49.28
11,-0.03,1.03,0.13,52.26
11,-0.03,1.03,0.11,41.42
11,-0.01,0.97,0.11,41.42
11,-0.08,1.03,0.15,40.22
11,-0.08,1.04,0.11,47.67
11,0.00,0.98,0.11,47.58
11,-0.02,0.98,0.13,43.67
11,-0.02,1.05,0.11,41.90
11,-0.05,1.05,0.11,43.52
11,-0.02,0.96,0.11,43.52
11,-0.05,1.00,0.14,45.50
11,-0.05,1.00,0.17,39.21
11,-0.02,1.02,0.11,39.21
11,-0.00,0.98,0.12,48.77
11,-0.00,0.98,0.15,51.36
11,-0.07,1.04,0.15,50.93
11,-0.01,0.96,0.12,37.61
11,-0.01,0.99,0.12,42.87
11,-0.02,0.99,0.12,43.93
11,-0.03,1.04,0.11,43.93
11,-0.00,0.97,0.11,48.43
11,-0.00,0.97,0.09,41.67
11,-0.06,1.03,0.15,41.67
11,-0.01,0.99,0.10,43.30
11,-0.01,0.99,0.13,40.18
11,-0.01,0.98,0.13,40.47
11,-0.06,1.05,0.14,48.30
11,-0.06,1.02,0.11,49.68
11,-0.00,0.96,0.11,41.66
11,-0.05,1.00,0.14,41.66
11,-0.05,1.02,0.11,38.85
11,-0.02,1.02,0.06,45.61
11,-0.01,0.97,0.13,45.61
11,-0.01,1.04,0.15,36.62
11,-0.07,1.04,0.11,43.55
11,-0.01,0.97,0.11,43.55
11,-0.02,0.99,0.13,42.55
11,-0.02,0.98,0.13,45.67
11,-0.05,1.04,0.13,45.77
11,-0.01,0.96,0.12,44.99
11,-0.01,1.03,0.15,42.24
11,-0.06,1.03,0.15,42.43
11,-0.02,1.00,0.11,42.43
11,-0.01,0.97,0.12,45.57
11,-0.01,0.97,0.09,43.06
11,-0.06,1.05,0.15,43.06
11,-0.02,0.96,0.12,43.86
11,-0.02,0.96,0.14,44.42
11,-0.04,1.00,0.14,44.03
11,-0.03,1.03,0.13,42.47
11,-0.03,1.03,0.12,43.17
11,-0.01,0.97,0.12,41.81
11,-0.06,1.03,0.15,41.81
11,-0.07,0.98,0.11,42.78
11,-0.01,0.98,0.12,41.90
11,-0.02,0.99,0.12,41.90
11,-0.05,1.04,0.13,46.45
11,-0.05,1.04,0.10,40.51
11,-0.01,0.96,0.10,40.51
11,-0.06,1.01,0.15,44.12
11,-0.06,1.01,0.11,47.27
11,-0.02,1.01,0.11,47.22
11,-0.02,0.97,0.11,40.96
11,-0.02,1.04,0.13,40.55
11,-0.07,1.04,0.13,38.81
11,-0.01,0.97,0.11,38.81
11,-0.04,1.01,0.13,39.65
11,-0.04,1.01,0.19,37.69
11,-0.04,1.04,0.12,37.69
11,-0.01,0.96,0.12,44.09
11,-0.01,0.97,0.15,42.66
11,-0.05,1.03,0.15,42.96
11,-0.01,0.99,0.12,40.61
11,-0.01,0.98,0.13,46.19
11,-0.02,0.98,0.13,46.32
11,-0.05,1.04,0.12,46.32
11,-0.01,0.96,0.11,48.38
11,-0.01,0.96,0.08,39.11
11,-0.06,1.01,0.15,39.11
11,-0.02,1.02,0.12,49.17
11,-0.02,1.02,0.12,43.54
11,-0.02,0.97,0.12,43.63
11,-0.07,1.05,0.14,46.76
11,-0.07,1.02,0.11,49.57
11,-0.01,0.96,0.11,46.38
11,-0.03,0.99,0.12,46.38
11,-0.03,1.04,0.13,45.59
11,-0.04,1.04,0.17,48.17
11,-0.00,0.96,0.11,48.17
11,-0.06,1.02,0.15,43.70
11,-0.06,1.02,0.10,42.01
11,-0.01,1.00,0.10,42.01
11,-0.01,0.98,0.11,44.28
11,-0.01,0.98,0.13,42.79
11,-0.06,1.05,0.13,42.83
11,-0.00,0.96,0.11,42.83
11,-0.00,1.01,0.14,45.58
11,-0.05,1.01,0.14,46.72
11,-0.02,1.03,0.11,46.72
11,-0.01,0.97,0.12,46.27
11,-0.01,0.97,0.08,41.19
11,-0.07,1.03,0.15,41.19
11,-0.00,0.98,0.11,47.37
11,-0.00,0.98,0.13,41.18
11,-0.03,1.00,0.13,41.34
11,-0.05,1.04,0.12,39.77
11,-0.05,1.02,0.11,43.62
11,-0.00,0.95,0.11,43.51
11,-0.06,1.01,0.14,43.51
11,-0.06,1.00,0.11,44.63
11,-0.02,1.00,0.12,41.56
11,-0.01,0.97,0.12,41.56
11,-0.06,1.06,0.14,49.17
11,-0.06,1.06,0.11,45.75
11,-0.01,0.96,0.11,45.75
11,-0.04,1.00,0.14,51.20
11,-0.04,1.03,0.11,43.26
11,-0.04,1.03,0.11,43.66
11,-0.01,0.97,0.12,42.09
11,-0.01,1.03,0.15,45.55
11,-0.06,1.03,0.15,42.60
11,-0.00,0.98,0.12,42.60
11,-0.02,0.99,0.12,42.62
11,-0.02,0.99,0.12,44.69
11,-0.06,1.04,0.12,44.69
11,-0.00,0.96,0.11,42.21
11,-0.00,0.95,0.15,43.05
11,-0.05,1.02,0.15,43.27
11,-0.02,1.01,0.10,37.79
11,-0.02,0.97,0.11,49.04
11,-0.02,0.97,0.11,40.59
11,-0.07,1.04,0.14,40.59
11,-0.07,0.97,0.11,44.43
11,-0.01,0.97,0.07,41.25
11,-0.02,1.01,0.13,41.25
11,-0.04,1.04,0.12,41.56
11,-0.04,1.04,0.12,39.99
11,-0.01,0.96,0.12,39.99
11,-0.06,1.02,0.14,45.91
11,-0.06,1.05,0.11,37.79
11,-0.00,0.99,0.11,36.27
11,-0.02,0.97,0.13,36.27
11,-0.02,1.04,0.15,45.13
11,-0.06,1.04,0.18,41.54
11,-0.01,0.96,0.12,41.54
11,-0.04,1.01,0.14,38.83
11,-0.04,1.01,0.11,40.38
11,-0.02,1.01,0.11,40.38
11,-0.01,0.97,0.10,40.37
11,-0.01,0.98,0.15,41.48
11,-0.06,1.04,0.15,41.75
11,0.00,0.98,0.12,40.97
11,0.00,0.99,0.13,41.85
11,-0.02,0.99,0.13,39.97
11,-0.05,1.04,0.12,39.97
11,-0.01,0.96,0.11,44.97
11,-0.01,0.96,0.09,47.05
11,-0.05,1.03,0.15,47.05
11,-0.01,0.99,0.11,42.35
11,-0.01,0.99,0.12,45.09
11,-0.01,0.98,0.12,45.19
11,-0.07,1.05,0.14,48.32
11,-0.07,1.03,0.11,37.31
11,-0.02,0.96,0.11,39.14
11,-0.03,1.01,0.14,39.14
11,-0.03,1.03,0.12,40.30
11,-0.03,1.03,0.11,40.22
11,-0.01,0.97,0.11,40.22
11,-0.06,1.04,0.15,46.20
11,-0.06,1.04,0.10,40.43
11,0.00,0.97,0.10,40.43
11,-0.02,0.99,0.12,48.82
11,-0.02,0.97,0.12,52.41
11,-0.05,1.04,0.12,51.66
11,-0.02,0.96,0.12,39.12
11,-0.02,1.01,0.14,42.84
11,-0.06,1.01,0.14,43.83
11,-0.01,1.00,0.11,43.83
11,-0.01,0.97,0.13,40.45
11,-0.01,0.97,0.14,37.16
11,-0.06,1.04,0.14,37.16
11,-0.00,0.98,0.12,40.61
11,-0.00,1.00,0.13,40.54
11,-0.03,1.00,0.13,39.96
11,-0.04,1.04,0.13,42.31
11,-0.04,0.96,0.12,43.92
11,-0.01,0.96,0.12,41.63
11,-0.07,1.02,0.14,41.63
11,-0.06,0.99,0.11,49.47
11,-0.00,0.99,0.07,47.63
11,-0.02,0.99,0.13,47.63
11,-0.06,1.04,0.13,43.02
11,-0.06,1.04,0.12,36.03
11,-0.01,0.96,0.12,36.03
11,-0.05,1.00,0.13,47.34
11,-0.05,1.01,0.12,46.08
11,-0.02,1.01,0.12,45.45
11,-0.01,0.97,0.12,44.67
11,-0.01,1.04,0.15,44.76
11,-0.08,1.04,0.18,41.93
11,-0.00,0.97,0.12,41.93
11,-0.02,1.00,0.13,44.53
11,-0.02,1.00,0.12,39.09
11,-0.05,1.04,0.12,39.09
11,-0.02,0.96,0.12,47.59
11,-0.02,0.96,0.15,47.97
11,-0.06,1.03,0.15,48.41
11,-0.01,0.99,0.10,45.28
11,-0.01,0.98,0.12,40.14
11,-0.01,0.98,0.12,43.16
11,-0.07,1.04,0.14,43.16
11,-0.07,0.96,0.11,39.81
11,-0.01,0.96,0.08,44.28
11,-0.05,1.00,0.15,44.28
11,-0.03,1.02,0.12,40.32
11,-0.03,1.02,0.12,40.65
11,-0.01,0.97,0.12,40.27
11,-0.06,1.04,0.13,39.49
11,-0.06,1.03,0.11,39.40
11,-0.01,0.97,0.11,48.54
11,-0.03,0.98,0.14,48.54
11,-0.03,1.04,0.13,48.30
11,-0.05,1.04,0.18,43.31
11,-0.01,0.96,0.11,43.31
11,-0.06,1.02,0.15,41.44
11,-0.06,1.02,0.11,46.16
11,-0.02,1.00,0.11,46.16
11,-0.01,0.98,0.11,49.61
11,-0.01,0.99,0.14,48.06
12,-0.01,0.98,0.12,50.35
12,-0.01,0.98,0.12,43.75
12,-0.03,0.98,0.12,41.88
12,-0.06,1.04,0.13,41.88
12,-0.06,0.96,0.11,39.24
12,-0.01,0.96,0.09,38.94
12,-0.04,1.01,0.15,38.94
12,-0.02,1.01,0.13,41.64
12,-0.02,1.01,0.11,43.27
12,-0.01,0.98,0.11,43.27
12,-0.07,1.04,0.15,41.17
12,-0.07,1.03,0.11,46.96
12,-0.01,0.97,0.11,47.56
12,-0.03,0.99,0.14,39.73
12,-0.03,1.03,0.12,42.97
12,-0.05,1.03,0.12,41.71
12,-0.01,0.97,0.11,41.71
12,-0.00,1.03,0.15,45.74
12,-0.06,1.03,0.16,47.40
12,-0.01,0.98,0.10,47.40
12,-0.02,0.99,0.13,44.25
12,-0.02,0.97,0.13,41.54
12,-0.07,1.03,0.13,41.88
12,-0.01,0.97,0.11,45.02
12,-0.01,1.00,0.14,42.34
12,-0.05,1.00,0.14,45.93
12,-0.02,1.02,0.12,45.93
12,-0.02,0.97,0.12,44.81
12,-0.02,0.97,0.08,42.00
12,-0.06,1.03,0.15,42.00
12,-0.01,0.97,0.11,41.96
12,-0.01,0.97,0.13,47.43
12,-0.03,1.00,0.13,47.33
12,-0.04,1.04,0.13,48.90
12,-0.04,1.02,0.11,41.28
12,-0.02,0.96,0.11,43.79
12,-0.05,1.03,0.14,43.79
12,-0.05,1.00,0.10,50.61
12,-0.01,1.00,0.12,40.98
12,-0.01,0.99,0.12,40.98
12,-0.01,1.03,0.13,44.75
12,-0.07,1.03,0.12,42.13
12,-0.00,0.97,0.12,42.13
12,-0.03,1.01,0.14,39.41
12,-0.03,1.02,0.11,41.95
12,-0.04,1.02,0.11,42.03
12,-0.01,0.97,0.12,49.86
12,-0.01,1.04,0.15,45.49
12,-0.08,1.04,0.15,40.62
12,-0.01,0.97,0.11,40.62
12,-0.02,0.99,0.13,40.32
12,-0.02,0.99,0.18,45.68
12,-0.05,1.04,0.12,45.68
12,-0.01,0.97,0.11,38.72
12,-0.01,0.97,0.14,40.42
12,-0.05,1.02,0.14,40.36
12,-0.02,1.00,0.10,44.28
12,-0.02,1.04,0.12,44.02
12,-0.01,0.98,0.12,50.54
12,-0.06,1.04,0.14,50.54
12,-0.02,0.97,0.12,41.12
12,-0.02,0.97,0.07,43.25
12,-0.04,0.99,0.13,43.25
12,-0.03,1.03,0.11,42.75
12,-0.03,1.03,0.11,42.60
12,-0.02,0.97,0.11,42.60
12,-0.07,1.03,0.15,39.65
12,-0.07,1.05,0.11,43.55
12,-0.00,0.99,0.11,43.55
12,-0.02,0.98,0.12,41.20
12,-0.02,1.04,0.13,46.18
12,-0.06,1.04,0.13,45.91
12,-0.00,0.97,0.12,45.91
12,-0.06,1.01,0.16,41.26
12,-0.06,1.01,0.11,41.99
12,-0.02,1.00,0.11,41.99
12,-0.01,0.97,0.13,39.02
12,-0.01,0.97,0.13,41.36
12,-0.06,1.04,0.13,40.92
12,-0.00,0.97,0.13,40.92
12,-0.00,0.99,0.14,41.44
12,-0.04,0.99,0.14,38.23
12,-0.03,1.03,0.14,38.23
12,-0.02,0.95,0.11,44.42
12,-0.02,0.95,0.08,41.05
12,-0.06,1.03,0.14,41.05
12,-0.02,0.99,0.11,41.26
12,-0.02,0.99,0.13,44.72
12,-0.02,0.98,0.13,45.24
12,-0.05,1.04,0.13,48.38
12,-0.05,1.03,0.12,46.20
12,-0.01,0.96,0.12,46.66
12,-0.05,1.00,0.14,46.66
12,-0.05,1.01,0.12,45.61
12,-0.02,1.01,0.06,44.83
12,-0.00,0.98,0.13,44.83
12,-0.01,1.04,0.14,44.94
12,-0.07,1.04,0.12,36.43
12,-0.01,0.98,0.12,36.43
12,-0.03,0.99,0.13,48.30
12,-0.03,0.97,0.13,47.40
12,-0.04,1.04,0.13,47.21
12,-0.01,0.97,0.11,46.43
12,-0.01,1.02,0.13,44.48
12,-0.06,1.02,0.13,44.05
12,-0.02,0.99,0.11,44.05
12,-0.01,0.98,0.13,43.05
12,-0.01,0.98,0.13,45.59
12,-0.07,1.03,0.13,45.59
12,-0.01,0.96,0.11,48.09
12,-0.01,0.96,0.15,40.53
12,-0.05,1.00,0.15,40.59
12,-0.03,1.02,0.11,40.59
12,-0.03,0.97,0.11,44.68
12,-0.02,0.97,0.11,44.94
12,-0.06,1.03,0.14,44.94
12,-0.07,0.98,0.11,41.62
12,-0.01,0.98,0.12,42.47
12,-0.03,0.98,0.12,42.47
12,-0.05,1.04,0.14,42.69
12,-0.05,1.04,0.11,48.43
12,-0.01,0.96,0.11,48.43
12,-0.05,1.01,0.14,38.74
12,-0.05,1.01,0.10,44.08
12,-0.01,1.01,0.10,44.53
12,-0.02,0.97,0.12,41.40
12,-0.02,1.04,0.14,43.11
12,-0.07,1.04,0.14,44.38
12,-0.01,0.97,0.11,44.38
12,-0.03,1.00,0.13,38.41
12,-0.03,1.00,0.12,42.11
12,-0.03,1.02,0.12,42.11
12,-0.02,0.96,0.11,41.36
12,-0.02,0.96,0.15,43.85
12,-0.07,1.02,0.15,43.86
12,-0.01,0.99,0.12,41.51
12,-0.01,0.98,0.12,41.35
12,-0.02,0.98,0.12,42.13
12,-0.05,1.05,0.13,42.13
12,-0.01,0.96,0.11,47.06
12,-0.01,0.96,0.07,46.98
12,-0.05,1.01,0.13,46.98
12,-0.02,1.02,0.10,48.23
12,-0.02,1.02,0.12,42.98
12,-0.01,0.97,0.12,42.41
12,-0.06,1.04,0.15,44.76
12,-0.06,1.04,0.11,48.74
12,-0.01,0.98,0.11,41.17
12,-0.04,1.00,0.13,41.17
12,-0.04,1.04,0.13,48.51
12,-0.04,1.04,0.17,49.74
12,-0.01,0.96,0.11,49.74
12,-0.00,1.02,0.15,51.08
12,-0.07,1.02,0.11,49.10
12,-0.02,0.99,0.11,49.10
12,-0.01,0.99,0.12,45.80
12,-0.01,0.99,0.13,43.30
12,-0.06,1.06,0.13,43.69
12,0.00,0.96,0.10,43.69
12,0.00,1.00,0.13,47.93
12,-0.04,1.00,0.13,38.81
12,-0.03,1.01,0.12,38.81
12,-0.01,0.98,0.11,37.34
12,-0.01,0.98,0.09,40.75
12,-0.06,1.04,0.15,40.75
12,-0.01,0.97,0.11,47.95
12,-0.01,0.97,0.13,36.39
12,-0.03,0.99,0.13,35.97
12,-0.05,1.04,0.13,42.24
12,-0.05,1.04,0.12,37.95
12,-0.01,0.97,0.12,49.22
12,-0.06,1.03,0.13,49.22
12,-0.02,1.01,0.11,44.56
12,-0.02,1.01,0.12,41.53
12,-0.01,0.98,0.12,41.53
12,-0.06,1.04,0.14,41.12
12,-0.06,1.04,0.11,41.69
12,-0.01,0.97,0.11,41.69
12,-0.03,1.00,0.14,43.99
12,-0.03,0.97,0.11,44.43
12,-0.03,1.03,0.11,44.35
12,-0.01,0.97,0.11,43.56
12,-0.01,1.02,0.14,42.32
12,-0.06,1.02,0.14,40.47
12,-0.01,0.97,0.12,40.47
12,-0.02,0.99,0.11,44.05
12,-0.02,0.99,0.07,43.96
12,-0.05,1.04,0.13,43.96
12,-0.01,0.97,0.11,47.31
12,-0.01,0.95,0.14,47.96
12,-0.05,1.01,0.14,47.99
12,-0.03,1.01,0.12,37.03
12,-0.03,0.98,0.11,43.16
12,-0.01,0.98,0.11,42.38
12,-0.05,1.04,0.14,42.38
12,-0.01,0.97,0.11,38.46
12,-0.01,0.97,0.07,43.91
12,-0.04,1.00,0.13,43.91
12,-0.03,1.03,0.13,39.99
12,-0.03,1.03,0.10,41.59
12,-0.01,0.96,0.10,41.59
12,-0.07,1.02,0.14,45.59
12,-0.07,1.05,0.11,42.53
12,-0.01,0.99,0.11,49.32
12,-0.03,0.99,0.12,49.32
12,-0.03,1.05,0.13,40.66
12,-0.05,1.05,0.16,46.65
12,-0.01,0.96,0.10,46.65
12,-0.05,1.01,0.14,46.07
12,-0.05,1.01,0.12,39.57
12,-0.03,1.01,0.12,39.57
12,-0.01,0.97,0.12,46.74
12,-0.01,0.98,0.14,48.74
12,-0.06,1.04,0.14,48.64
12,-0.01,0.97,0.11,47.86
12,-0.01,0.99,0.13,44.07
12,-0.02,0.99,0.13,45.31
12,-0.04,1.03,0.13,45.31
12,-0.01,0.98,0.11,47.01
12,-0.01,0.98,0.08,40.50
12,-0.06,1.01,0.14,40.50
12,-0.02,0.99,0.11,41.23
12,-0.02,0.99,0.13,43.20
12,-0.02,0.99,0.13,43.48
12,-0.06,1.05,0.13,44.26
12,-0.06,1.03,0.11,42.97
12,-0.01,0.96,0.11,45.30
12,-0.04,1.00,0.13,45.30
12,-0.02,1.02,0.11,43.24
12,-0.02,1.02,0.11,45.88
12,-0.01,0.97,0.11,45.88
12,-0.06,1.03,0.15,45.17
12,-0.06,1.03,0.12,43.84
13,-0.01,0.98,0.12,42.58
13,-0.01,0.98,0.14,36.28
13,-0.06,1.04,0.14,36.41
13,-0.01,0.97,0.10,41.89
13,-0.01,1.00,0.13,41.84
13,-0.05,1.00,0.13,43.36
13,-0.03,1.03,0.11,43.36
13,-0.03,0.97,0.12,43.45
13,-0.01,0.97,0.08,42.84
13,-0.06,1.02,0.15,42.84
13,-0.01,0.99,0.11,46.73
13,-0.01,0.99,0.13,39.83
13,-0.03,0.98,0.13,39.83
13,-0.04,1.04,0.12,43.97
13,-0.04,1.03,0.11,42.90
13,-0.01,0.96,0.11,42.75
13,-0.05,1.01,0.14,41.97
13,-0.05,1.01,0.12,39.96
13,-0.03,1.01,0.12,39.39
13,-0.01,0.98,0.12,39.39
13,-0.06,1.04,0.14,46.75
13,-0.06,1.04,0.11,40.60
13,-0.01,0.97,0.11,40.60
13,-0.03,1.00,0.13,43.58
13,-0.03,1.03,0.12,43.44
13,-0.04,1.03,0.12,43.36
13,-0.02,0.97,0.12,41.79
13,-0.02,1.03,0.14,41.53
13,-0.06,1.03,0.14,46.60
13,-0.01,0.99,0.10,46.60
13,-0.02,0.98,0.12,41.93
13,-0.02,0.98,0.08,40.10
13,-0.06,1.03,0.14,40.10
13,-0.01,0.97,0.11,42.15
13,-0.01,0.97,0.14,43.43
13,-0.05,1.00,0.14,43.31
13,-0.03,1.01,0.11,43.31
13,-0.03,1.03,0.12,41.77
13,-0.03,0.97,0.12,43.13
13,-0.06,1.03,0.15,43.13
13,-0.06,0.98,0.12,51.07
13,-0.01,0.98,0.12,41.27
13,-0.04,0.99,0.12,41.27
13,-0.04,1.04,0.14,40.62
13,-0.04,1.04,0.11,43.13
13,-0.01,0.96,0.11,43.13
13,-0.07,1.02,0.15,37.74
13,-0.07,1.01,0.11,42.89
13,-0.02,1.01,0.11,42.97
13,-0.01,0.98,0.12,39.05
13,-0.01,1.05,0.13,41.11
13,-0.06,1.05,0.13,41.56
13,-0.01,0.96,0.10,41.56
13,-0.04,0.99,0.14,41.16
13,-0.04,0.99,0.18,46.36
13,-0.03,1.02,0.12,46.36
13,0.00,0.98,0.10,43.28
13,0.00,0.98,0.14,36.16
13,-0.07,1.03,0.14,36.41
13,-0.01,0.98,0.11,42.68
13,-0.01,0.99,0.13,42.94
13,-0.02,0.99,0.13,46.11
13,-0.04,1.04,0.13,46.11
13,-0.01,0.97,0.12,43.31
13,-0.01,0.97,0.09,41.91
13,-0.05,1.01,0.15,41.91
13,-0.03,1.01,0.12,44.83
13,-0.03,1.01,0.13,49.10
13,-0.01,0.98,0.13,49.10
13,-0.05,1.04,0.13,37.71
13,-0.05,1.03,0.12,43.90
13,-0.01,0.97,0.12,44.18
13,-0.04,1.00,0.14,43.39
13,-0.04,1.03,0.13,39.53
13,-0.02,1.03,0.13,42.86
13,-0.00,0.97,0.12,42.86
13,-0.00,1.03,0.15,46.91
13,-0.07,1.03,0.12,43.38
13,-0.02,0.99,0.12,43.38
13,-0.02,0.99,0.13,44.56
13,-0.02,0.97,0.14,40.14
13,-0.05,1.04,0.14,40.30
13,-0.01,0.97,0.11,41.09
13,-0.01,1.01,0.15,42.20
13,-0.05,1.01,0.15,44.67
13,-0.02,1.01,0.12,44.67
13,-0.02,0.98,0.12,48.42
13,-0.02,0.98,0.08,39.66
13,-0.06,1.03,0.14,39.66
13,-0.01,0.98,0.10,44.12
13,-0.01,0.98,0.13,48.18
13,-0.02,0.99,0.13,48.06
13,-0.03,1.03,0.13,44.14
13,-0.03,1.02,0.11,42.48
13,-0.02,0.96,0.11,41.68
13,-0.06,1.02,0.14,41.68
13,-0.06,1.00,0.11,42.40
13,-0.01,1.00,0.12,41.37
13,-0.02,0.98,0.12,41.37
13,-0.05,1.04,0.13,39.75
13,-0.05,1.04,0.11,39.34
13,-0.01,0.98,0.11,39.34
13,-0.04,1.00,0.14,42.02
13,-0.04,1.02,0.13,38.89
13,-0.03,1.02,0.13,38.70
13,-0.01,0.97,0.11,37.92
13,-0.01,1.04,0.13,49.74
13,-0.06,1.04,0.13,43.38
13,-0.01,0.98,0.11,43.38
13,-0.02,0.99,0.12,43.89
13,-0.02,0.99,0.12,44.71
13,-0.05,1.03,0.12,44.71
13,-0.01,0.96,0.12,43.08
13,-0.01,0.96,0.14,46.18
13,-0.06,1.03,0.14,46.35
13,-0.01,1.01,0.11,42.44
13,-0.01,1.05,0.12,43.72
13,-0.01,0.99,0.12,42.62
13,-0.07,1.04,0.14,42.62
13,-0.07,0.98,0.11,42.13
13,-0.01,0.98,0.08,42.45
13,-0.04,1.00,0.14,42.45
13,-0.03,1.02,0.12,48.55
13,-0.03,1.02,0.11,38.34
13,-0.01,0.97,0.11,38.34
13,-0.06,1.03,0.13,41.08
13,-0.06,1.04,0.11,42.27
13,-0.01,0.98,0.11,42.70
13,-0.02,0.99,0.12,40.35
13,-0.02,1.04,0.13,42.55
13,-0.04,1.04,0.13,43.38
13,-0.01,0.97,0.12,43.38
13,-0.05,1.01,0.14,43.68
13,-0.05,1.01,0.12,43.74
13,-0.03,1.00,0.12,43.74
13,-0.02,0.98,0.11,42.85
13,-0.02,0.97,0.15,41.36
13,-0.06,1.03,0.15,40.91
13,-0.01,0.97,0.12,44.04
13,-0.01,1.00,0.13,34.54
13,-0.04,1.00,0.13,46.51
13,-0.04,1.04,0.12,46.51
13,-0.02,0.97,0.11,38.87
13,-0.02,0.97,0.09,41.29
13,-0.06,1.03,0.15,41.29
13,-0.01,0.99,0.11,40.56
13,-0.01,0.99,0.12,43.98
13,-0.02,0.98,0.12,43.98
13,-0.05,1.03,0.13,41.97
13,-0.05,1.03,0.11,36.38
13,-0.01,0.97,0.11,42.71
13,-0.05,1.01,0.14,42.71
13,-0.05,1.01,0.11,40.75
13,-0.03,1.01,0.11,40.88
13,-0.01,0.98,0.11,40.88
13,-0.01,1.03,0.14,46.45
13,-0.07,1.03,0.11,43.90
13,-0.01,0.98,0.11,43.90
13,-0.01,1.00,0.13,45.47
13,-0.01,0.96,0.12,45.62
13,-0.04,1.03,0.12,46.14
13,-0.01,0.97,0.10,47.71
13,-0.01,1.01,0.14,41.30
13,-0.05,1.01,0.14,41.51
13,-0.01,1.00,0.11,41.51
13,-0.02,0.99,0.12,43.90
13,-0.02,0.99,0.07,41.87
13,-0.05,1.03,0.13,41.87
13,-0.01,0.98,0.11,38.01
13,-0.01,0.98,0.15,42.45
13,-0.04,1.00,0.15,42.83
13,-0.03,1.02,0.12,42.83
13,-0.03,1.04,0.12,45.16
13,-0.02,0.98,0.12,43.64
13,-0.07,1.02,0.14,43.64
13,-0.07,0.98,0.11,40.45
13,-0.01,0.98,0.07,39.33
13,-0.03,0.99,0.13,39.33
13,-0.04,1.03,0.12,43.39
13,-0.04,1.03,0.11,42.45
13,-0.01,0.96,0.11,42.45
13,-0.06,1.01,0.14,42.06
13,-0.06,1.06,0.12,42.61
13,-0.02,1.00,0.12,42.59
13,-0.02,0.98,0.12,46.51
13,-0.02,1.04,0.13,39.84
13,-0.05,1.04,0.13,45.80
13,-0.02,0.97,0.11,45.80
13,-0.05,1.00,0.14,45.78
13,-0.05,1.00,0.13,43.87
13,-0.03,1.02,0.13,43.87
13,-0.01,0.98,0.11,41.27
13,-0.01,0.97,0.14,42.04
13,-0.06,1.03,0.14,42.19
13,-0.02,1.00,0.11,42.19
13,-0.02,0.99,0.13,48.60
13,-0.03,0.99,0.13,38.69
13,-0.05,1.03,0.13,38.69
13,-0.01,0.98,0.11,41.81
13,-0.01,0.98,0.08,42.98
13,-0.05,1.01,0.14,42.98
13,-0.03,1.01,0.11,45.16
13,-0.03,1.01,0.12,44.34
13,-0.02,0.98,0.12,44.57
13,-0.05,1.03,0.14,41.44
13,-0.05,1.03,0.12,48.94
13,-0.01,0.97,0.12,43.97
13,-0.04,0.99,0.13,43.97
13,-0.04,1.03,0.12,37.74
13,-0.04,1.03,0.11,47.11
13,-0.00,0.97,0.11,47.11
13,-0.06,1.02,0.15,43.99
13,-0.06,1.02,0.11,37.37
13,-0.01,1.00,0.11,37.37
13,-0.01,0.98,0.13,43.68
13,-0.01,0.96,0.14,37.92
13,-0.05,1.03,0.14,37.96
13,-0.01,0.97,0.12,36.40
13,-0.01,1.00,0.13,47.72
13,-0.06,1.00,0.13,38.65
13,-0.03,1.01,0.11,38.65
13,-0.01,0.97,0.12,46.62
13,-0.01,0.97,0.08,51.31
13,-0.06,1.03,0.15,51.31
13,-0.01,0.98,0.10,44.44
13,-0.01,0.98,0.13,43.79
13,-0.03,1.00,0.13,43.15
13,-0.04,1.03,0.12,48.64
13,-0.04,1.03,0.11,43.92
13,-0.01,0.97,0.11,42.03
13,-0.06,1.01,0.14,42.03
13,-0.06,1.01,0.11,46.52
13,-0.01,1.01,0.11,43.52
14,-0.00,1.02,0.14,44.50
14,-0.06,1.02,0.18,46.07
14,-0.01,0.98,0.11,46.07
14,-0.02,0.99,0.14,39.15
14,-0.02,0.99,0.13,42.68
14,-0.05,1.04,0.13,43.00
14,-0.01,0.98,0.11,43.00
14,-0.01,0.95,0.14,39.51
14,-0.05,1.01,0.14,43.77
14,-0.03,1.00,0.11,43.77
14,-0.02,0.98,0.12,39.37
14,-0.02,0.98,0.10,49.65
14,-0.06,1.04,0.16,49.65
14,-0.02,0.97,0.11,38.80
14,-0.02,0.97,0.13,47.01
14,-0.04,1.00,0.13,47.01
14,-0.04,1.03,0.13,39.05
14,-0.04,1.04,0.12,43.20
14,-0.01,0.98,0.12,43.54
14,-0.05,1.03,0.14,48.24
14,-0.05,0.99,0.10,42.64
14,-0.01,0.99,0.07,49.29
14,-0.02,0.99,0.13,49.29
14,-0.05,1.04,0.13,42.62
14,-0.05,1.04,0.11,48.24
14,-0.01,0.97,0.11,48.24
14,-0.05,1.01,0.14,44.16
14,-0.05,1.01,0.11,43.95
14,-0.02,1.01,0.11,44.29
14,-0.02,0.98,0.11,41.94
14,-0.02,1.04,0.13,39.69
14,-0.06,1.04,0.13,45.16
14,-0.01,0.97,0.10,45.16
14,-0.03,1.00,0.13,42.53
14,-0.03,1.00,0.18,43.54
14,-0.04,1.04,0.12,43.54
14,-0.01,0.98,0.11,46.83
14,-0.01,0.98,0.15,41.61
14,-0.05,1.02,0.15,41.55
14,-0.02,1.00,0.11,41.55
14,-0.02,1.05,0.12,40.30
14,-0.01,0.99,0.12,44.49
14,-0.06,1.04,0.14,44.49
14,-0.01,0.97,0.12,52.07
14,-0.01,0.97,0.07,36.71
14,-0.04,1.01,0.13,36.71
14,-0.03,1.01,0.12,47.85
14,-0.03,1.01,0.11,45.30
14,-0.02,0.97,0.11,45.30
14,-0.07,1.03,0.14,44.17
14,-0.07,1.04,0.12,46.37
14,-0.01,0.98,0.12,44.37
14,-0.02,0.99,0.13,44.37
14,-0.02,1.03,0.12,49.45
14,-0.04,1.03,0.11,43.14
14,-0.01,0.97,0.11,43.14
14,-0.06,1.01,0.15,46.89
14,-0.06,1.01,0.11,41.78
14,-0.01,1.00,0.11,41.78
14,-0.02,0.98,0.12,44.29
14,-0.02,0.97,0.14,43.38
14,-0.06,1.03,0.14,43.25
14,-0.00,0.97,0.10,44.81
14,-0.00,1.00,0.13,44.52
14,-0.04,1.00,0.13,43.87
14,-0.03,1.02,0.12,43.87
14,-0.02,0.97,0.11,41.76
14,-0.02,0.97,0.07,41.26
14,-0.06,1.02,0.14,41.26
14,-0.01,0.98,0.12,38.93
14,-0.01,0.98,0.13,43.15
14,-0.02,0.99,0.13,43.50
14,-0.03,1.04,0.13,38.01
14,-0.03,1.04,0.12,40.60
14,-0.01,0.97,0.12,42.08
14,-0.05,1.01,0.14,42.08
14,-0.05,1.00,0.11,46.06
14,-0.02,1.00,0.12,43.99
14,-0.01,0.98,0.12,43.99
14,-0.06,1.03,0.14,39.20
14,-0.06,1.03,0.12,37.57
14,-0.01,0.97,0.12,37.57
14,-0.04,0.99,0.13,47.32
14,-0.04,0.96,0.13,44.95
14,-0.03,1.02,0.13,44.62
14,-0.02,0.98,0.12,43.06
14,-0.02,1.02,0.15,46.98
14,-0.06,1.02,0.15,43.13
14,-0.01,0.98,0.12,43.13
14,-0.02,0.98,0.12,42.74
14,-0.02,0.98,0.06,38.56
14,-0.06,1.03,0.13,38.56
14,-0.01,0.97,0.11,42.48
14,-0.01,0.97,0.13,44.30
14,-0.04,1.01,0.13,44.36
14,-0.02,1.01,0.12,39.66
14,-0.02,1.04,0.12,37.95
14,-0.02,0.98,0.12,41.68
14,-0.06,1.03,0.14,41.68
14,-0.02,0.98,0.11,39.46
14,-0.02,0.98,0.06,42.54
14,-0.02,1.00,0.13,42.54
14,-0.04,1.02,0.12,44.58
14,-0.04,1.02,0.12,39.89
14,-0.01,0.97,0.12,39.89
14,-0.05,1.02,0.14,41.93
14,-0.05,1.06,0.12,46.00
14,-0.02,1.00,0.12,45.70
14,-0.02,0.98,0.12,38.65
14,-0.02,1.04,0.13,45.05
14,-0.05,1.04,0.17,40.66
14,-0.01,0.98,0.11,40.66
14,-0.04,1.00,0.14,41.27
14,-0.04,1.00,0.13,36.84
14,-0.03,1.02,0.13,36.84
14,-0.02,0.98,0.11,44.50
14,-0.02,0.96,0.14,48.75
14,-0.06,1.02,0.14,48.59
14,-0.01,0.99,0.11,37.62
14,-0.01,0.98,0.13,44.74
14,-0.03,0.98,0.13,42.15
14,-0.05,1.04,0.13,42.15
14,-0.01,0.97,0.11,40.35
14,-0.01,0.97,0.09,43.35
14,-0.06,1.01,0.15,43.35
14,-0.02,1.01,0.11,48.19
14,-0.02,1.01,0.12,42.86
14,-0.02,0.99,0.12,42.80
14,-0.06,1.03,0.14,42.80
14,-0.06,1.03,0.12,43.85
14,-0.01,0.97,0.12,46.37
14,-0.03,1.00,0.13,46.37
14,-0.03,1.03,0.12,38.68
14,-0.03,1.03,0.12,44.58
14,-0.02,0.98,0.12,44.58
14,-0.00,1.03,0.14,45.36
14,-0.07,1.03,0.11,48.13
14,-0.02,0.99,0.11,48.13
14,-0.02,0.99,0.13,53.98
14,-0.02,0.97,0.12,43.31
14,-0.05,1.03,0.12,43.21
14,-0.01,0.97,0.12,47.91
14,-0.01,1.01,0.15,44.72
14,-0.04,1.01,0.15,38.26
14,-0.02,1.01,0.12,38.26
14,-0.02,0.98,0.12,43.73
14,-0.02,0.98,0.13,44.05
14,-0.05,1.03,0.13,44.05
14,-0.01,0.98,0.11,44.67
14,-0.01,1.00,0.12,43.69
14,-0.03,1.00,0.12,43.11
14,-0.03,1.03,0.12,39.19
14,-0.03,0.96,0.12,36.71
14,-0.02,0.96,0.12,41.22
14,-0.05,1.02,0.14,41.22
14,-0.02,1.00,0.11,45.53
14,-0.02,1.00,0.12,40.69
14,-0.02,0.98,0.12,40.69
14,-0.05,1.03,0.14,39.43
14,-0.05,1.03,0.12,38.99
14,-0.01,0.97,0.12,38.38
14,-0.05,1.01,0.14,43.08
14,-0.05,1.02,0.11,39.27
14,-0.03,1.02,0.11,40.09
14,-0.02,0.97,0.12,40.09
14,-0.02,1.03,0.14,40.61
14,-0.05,1.03,0.18,43.31
14,-0.02,0.98,0.12,43.31
14,-0.03,0.99,0.13,46.67
14,-0.03,0.99,0.12,43.30
14,-0.04,1.03,0.12,43.30
14,-0.01,0.97,0.11,45.23
14,-0.01,0.96,0.13,45.71
14,-0.05,1.02,0.13,46.03
14,-0.02,1.00,0.12,42.90
14,-0.02,0.98,0.12,42.72
14,-0.02,0.98,0.12,41.27
14,-0.06,1.03,0.13,41.27
14,-0.06,0.98,0.12,38.36
14,0.00,0.98,0.08,44.22
14,-0.04,1.00,0.14,44.22
14,-0.03,1.01,0.12,37.79
14,-0.03,1.01,0.11,45.23
14,0.00,0.98,0.11,44.96
14,-0.05,1.02,0.15,42.61
14,-0.05,1.05,0.13,41.50
14,-0.02,0.99,0.13,44.15
14,-0.03,0.99,0.13,44.15
14,-0.04,1.03,0.12,41.57
14,-0.04,1.03,0.11,39.38
14,-0.01,0.98,0.11,39.38
14,-0.05,1.02,0.13,40.79
14,-0.05,1.02,0.11,46.65
14,-0.02,1.01,0.11,46.65
14,-0.02,0.98,0.12,39.68
14,-0.02,0.97,0.14,39.92
14,-0.06,1.04,0.14,44.61
14,-0.00,0.98,0.13,44.61
14,-0.00,0.99,0.13,43.41
14,-0.04,0.99,0.13,40.54
14,-0.03,1.02,0.13,40.54
14,-0.02,0.97,0.12,41.99
14,-0.02,0.97,0.14,45.96
14,-0.06,1.01,0.14,45.96
14,-0.02,0.99,0.13,38.04
14,-0.02,0.98,0.13,43.83
14,-0.02,0.98,0.13,44.14
14,-0.05,1.04,0.12,40.22
14,-0.05,0.98,0.12,51.14
14,-0.01,0.98,0.12,44.98
14,-0.04,1.01,0.14,44.98
14,-0.03,1.01,0.11,44.56
14,-0.03,1.01,0.12,39.19
14,-0.02,0.98,0.12,39.19
14,-0.06,1.02,0.14,38.26
14,-0.06,1.02,0.11,45.75
14,-0.01,0.98,0.11,45.99
14,-0.03,1.00,0.12,48.34
14,-0.03,0.96,0.12,43.98
14,-0.04,1.02,0.12,43.85
14,-0.02,0.97,0.13,43.85
14,-0.02,1.02,0.15,43.98
14,-0.06,1.02,0.18,46.12
14,-0.02,0.99,0.12,46.12
14,-0.01,0.98,0.12,39.12
14,-0.01,0.98,0.13,43.23
14,-0.05,1.03,0.13,43.23
14,-0.01,0.97,0.11,40.69
14,-0.01,0.94,0.13,44.98
14,-0.05,1.00,0.13,45.11
14,-0.03,1.02,0.11,38.06
14,-0.03,0.99,0.12,41.08
14,-0.01,0.99,0.12,42.48
15,-0.05,1.00,0.11,42.74
15,-0.02,1.00,0.12,38.74
15,-0.01,0.98,0.12,38.74
15,-0.06,1.03,0.14,44.25
15,-0.06,1.03,0.11,40.76
15,-0.02,0.98,0.11,40.76
15,-0.04,0.99,0.13,42.92
15,-0.04,0.95,0.11,42.92
15,-0.03,1.01,0.11,42.35
15,-0.01,0.98,0.11,46.27
15,-0.01,1.03,0.14,40.98
15,-0.06,1.03,0.14,46.89
15,-0.02,0.99,0.11,46.89
15,-0.03,1.00,0.12,45.37
15,-0.03,1.00,0.07,40.35
15,-0.05,1.03,0.13,40.35
15,-0.01,0.97,0.12,43.09
15,-0.01,0.95,0.14,44.34
15,-0.04,1.01,0.14,43.90
15,-0.01,1.00,0.12,41.55
15,-0.01,0.97,0.11,42.50
15,-0.02,0.97,0.11,43.82
15,-0.05,1.04,0.13,43.82
15,-0.02,0.98,0.11,39.71
15,-0.02,0.98,0.07,41.00
15,-0.03,1.00,0.13,41.00
15,-0.04,1.02,0.12,41.58
15,-0.04,1.02,0.12,46.88
15,-0.02,0.98,0.12,46.88
15,-0.06,1.02,0.14,42.28
15,-0.06,1.06,0.12,47.39
15,-0.02,1.00,0.12,47.64
15,-0.02,0.99,0.12,43.72
15,-0.02,1.04,0.13,38.24
15,-0.06,1.04,0.13,41.76
15,-0.01,0.97,0.11,41.76
15,-0.04,1.01,0.14,37.81
15,-0.04,1.01,0.12,50.56
15,-0.03,1.01,0.12,50.56
15,-0.02,0.98,0.12,38.54
15,-0.02,0.97,0.13,37.91
15,-0.06,1.03,0.13,38.17
15,-0.01,0.98,0.12,39.73
15,-0.01,1.00,0.14,39.83
15,-0.03,1.00,0.14,40.79
15,-0.04,1.02,0.12,40.79
15,-0.02,0.97,0.12,43.56
15,-0.02,0.97,0.06,35.88
15,-0.05,1.01,0.13,35.88
15,-0.02,1.00,0.11,45.16
15,-0.02,1.00,0.13,34.78
15,-0.02,0.98,0.13,34.57
15,-0.05,1.03,0.14,41.62
15,-0.05,1.03,0.12,48.45
15,-0.02,0.97,0.12,43.57
15,-0.03,1.00,0.14,43.57
15,-0.03,1.02,0.11,44.16
15,-0.03,1.02,0.06,40.77
15,-0.02,0.98,0.13,40.77
15,-0.06,1.03,0.15,47.91
15,-0.06,1.03,0.12,42.25
15,-0.02,0.99,0.12,42.25
15,-0.02,0.99,0.13,43.49
15,-0.02,0.97,0.12,36.40
15,-0.04,1.03,0.12,36.33
15,-0.02,0.97,0.12,39.46
15,-0.02,1.01,0.14,43.01
15,-0.05,1.01,0.14,43.10
15,-0.01,1.01,0.11,43.10
15,-0.01,0.98,0.11,45.97
15,-0.01,0.98,0.09,45.65
15,-0.05,1.02,0.15,45.65
15,-0.01,0.97,0.12,42.64
15,-0.01,0.97,0.13,38.59
15,-0.04,0.99,0.13,38.44
15,-0.04,1.02,0.12,39.22
15,-0.04,0.97,0.12,43.15
15,-0.02,0.97,0.12,43.84
15,-0.06,1.02,0.14,43.84
15,-0.02,0.99,0.12,46.52
15,-0.02,0.99,0.07,38.93
15,-0.03,0.99,0.13,38.93
15,-0.04,1.04,0.13,41.44
15,-0.04,1.04,0.11,38.92
15,-0.01,0.98,0.11,38.92
15,-0.05,1.01,0.14,38.75
15,-0.05,1.02,0.12,39.68
15,-0.02,1.02,0.12,39.61
15,-0.01,0.98,0.12,41.96
15,-0.01,1.03,0.14,44.01
15,-0.05,1.03,0.14,41.68
15,-0.02,0.99,0.12,41.68
15,-0.02,0.99,0.14,38.00
15,-0.02,0.99,0.12,41.58
15,-0.04,1.03,0.12,41.58
15,-0.01,0.97,0.10,42.43
15,-0.01,0.96,0.14,40.54
15,-0.05,1.02,0.14,40.16
15,-0.02,1.00,0.11,38.60
15,-0.02,0.98,0.13,43.29
15,-0.01,0.98,0.13,39.68
15,-0.06,1.04,0.14,39.68
15,-0.02,0.98,0.12,39.38
15,-0.02,0.98,0.07,39.42
15,-0.04,1.01,0.13,39.42
15,-0.03,1.00,0.13,42.06
15,-0.03,1.00,0.12,42.33
15,-0.01,0.98,0.12,43.00
15,-0.05,1.03,0.14,46.92
15,-0.05,1.04,0.11,44.92
15,-0.01,0.98,0.11,41.69
15,-0.03,0.99,0.12,41.69
15,-0.03,1.03,0.12,43.79
15,-0.05,1.03,0.11,42.01
15,-0.01,0.96,0.11,42.01
15,-0.05,1.02,0.14,45.17
15,-0.05,1.02,0.11,45.01
15,-0.02,0.99,0.11,45.01
15,-0.03,0.98,0.11,45.85
15,-0.03,0.97,0.13,42.26
15,-0.05,1.03,0.13,42.33
15,-0.01,0.98,0.10,40.76
15,-0.01,1.01,0.14,44.84
15,-0.04,1.01,0.14,42.95
15,-0.03,1.01,0.11,42.95
15,-0.01,0.97,0.12,46.20
15,-0.01,0.97,0.08,41.72
15,-0.06,1.03,0.14,41.72
15,-0.02,0.98,0.11,43.64
15,-0.02,0.98,0.12,41.93
15,-0.02,0.99,0.12,42.21
15,-0.04,1.02,0.12,50.05
15,-0.04,0.97,0.11,40.57
15,-0.02,0.97,0.11,42.56
15,-0.04,1.01,0.15,42.56
15,-0.03,1.00,0.11,44.70
15,-0.03,1.00,0.12,39.55
15,-0.02,0.98,0.12,39.55
15,-0.06,1.03,0.14,40.34
15,-0.06,1.03,0.11,46.18
15,-0.01,0.98,0.11,46.59
15,-0.04,0.99,0.13,42.67
15,-0.04,0.96,0.12,45.16
15,-0.03,1.02,0.12,42.97
15,-0.02,0.97,0.12,42.97
15,-0.02,1.02,0.14,43.41
15,-0.05,1.02,0.18,41.06
15,-0.02,0.99,0.12,41.06
15,-0.02,0.98,0.11,37.57
15,-0.02,0.98,0.13,50.11
15,-0.05,1.03,0.13,50.11
15,-0.01,0.97,0.12,44.01
15,-0.01,0.94,0.13,43.96
15,-0.05,1.01,0.13,44.03
15,-0.03,1.01,0.11,42.47
15,-0.03,0.98,0.12,43.33
15,-0.01,0.98,0.12,42.32
15,-0.05,1.02,0.14,42.32
15,-0.01,0.98,0.12,41.94
15,-0.01,0.98,0.07,39.02
15,-0.03,1.00,0.13,39.02
15,-0.03,1.03,0.11,42.70
15,-0.03,1.04,0.12,42.41
15,-0.01,0.98,0.12,42.96
15,-0.05,1.02,0.15,44.53
15,-0.05,0.99,0.11,41.29
15,-0.02,0.99,0.11,40.07
15,-0.02,0.98,0.11,40.07
15,-0.04,1.04,0.12,45.05
15,-0.04,1.04,0.12,44.50
15,-0.00,0.98,0.12,44.50
15,-0.04,1.00,0.14,39.67
15,-0.04,1.00,0.12,42.90
15,-0.02,1.02,0.12,42.90
15,-0.02,0.98,0.11,43.12
15,-0.02,0.96,0.14,42.04
15,-0.06,1.03,0.14,42.03
15,-0.01,0.99,0.12,42.03
15,-0.01,0.99,0.12,44.81
15,-0.03,0.99,0.07,49.59
15,-0.04,1.04,0.13,49.59
15,-0.02,0.98,0.11,43.45
15,-0.02,0.98,0.15,40.58
15,-0.05,1.01,0.15,40.58
15,-0.02,1.00,0.11,46.96
15,-0.02,1.05,0.12,39.88
15,-0.02,0.99,0.12,39.24
15,-0.05,1.03,0.14,41.59
15,-0.05,0.98,0.11,40.51
15,-0.02,0.98,0.11,36.83
15,-0.05,1.00,0.14,36.83
15,-0.04,1.02,0.12,44.76
15,-0.04,1.02,0.12,44.31
15,-0.02,0.98,0.12,44.31
15,-0.05,1.02,0.14,41.76
15,-0.05,1.02,0.11,42.18
15,-0.01,0.99,0.11,41.69
15,-0.02,0.99,0.12,40.90
15,-0.02,0.97,0.14,41.63
15,-0.04,1.03,0.14,47.62
15,-0.02,0.98,0.11,47.62
15,-0.02,1.01,0.14,44.34
15,-0.04,1.01,0.18,45.39
15,-0.02,1.01,0.12,45.39
15,-0.02,0.98,0.12,40.96
15,-0.02,0.98,0.13,45.50
15,-0.04,1.02,0.13,45.50
15,-0.02,0.97,0.11,40.44
15,-0.02,0.99,0.13,40.52
15,-0.04,0.99,0.13,40.01
15,-0.04,1.02,0.13,41.58
15,-0.04,0.97,0.11,41.15
15,-0.02,0.97,0.11,44.44
15,-0.06,1.02,0.14,44.44
15,-0.02,0.99,0.11,41.06
15,-0.02,0.99,0.06,37.22
15,-0.03,0.98,0.13,37.22
15,-0.04,1.04,0.13,44.65
15,-0.04,1.04,0.12,46.82
15,-0.01,0.98,0.12,46.53
15,-0.04,1.01,0.13,44.96
15,-0.04,1.01,0.11,44.82
15,-0.02,1.01,0.11,48.45
15,-0.01,0.98,0.12,48.45
15,-0.06,1.02,0.14,43.12
15,-0.06,1.02,0.18,44.97
15,-0.02,0.98,0.12,44.97
15,-0.02,1.00,0.13,44.91
15,-0.02,1.00,0.13,43.29
15,-0.04,1.02,0.13,43.29
15,-0.02,0.97,0.11,41.75
15,-0.02,0.95,0.15,41.70
15,-0.05,1.02,0.15,42.15
16,-0.03,0.98,0.12,43.39
16,-0.01,0.98,0.12,51.18
16,-0.05,1.02,0.14,51.18
16,-0.01,0.99,0.12,51.11
16,-0.01,0.99,0.07,40.80
16,-0.02,1.00,0.13,40.80
16,-0.04,1.02,0.12,43.67
16,-0.04,1.02,0.11,40.78
16,-0.01,0.97,0.11,40.83
16,-0.06,1.01,0.13,46.31
16,-0.06,1.01,0.12,47.78
16,-0.02,1.01,0.12,39.67
16,-0.02,0.98,0.11,39.67
16,-0.02,1.03,0.14,41.66
16,-0.05,1.03,0.17,45.12
16,-0.01,0.98,0.11,45.12
16,-0.04,0.99,0.13,42.99
16,-0.04,0.99,0.12,40.42
16,-0.04,1.01,0.12,40.42
16,-0.01,0.97,0.12,43.51
16,-0.01,0.96,0.14,41.37
16,-0.05,1.02,0.14,40.74
16,-0.03,0.99,0.12,39.18
16,-0.03,0.99,0.11,42.26
16,-0.02,0.99,0.07,39.93
16,-0.05,1.03,0.14,39.93
16,-0.01,0.98,0.11,42.46
16,-0.01,0.98,0.13,44.17
16,-0.05,1.02,0.13,44.17
16,-0.02,1.01,0.11,45.95
16,-0.02,1.04,0.12,44.15
16,-0.01,0.98,0.12,44.55
16,-0.06,1.03,0.14,35.15
16,-0.06,0.97,0.11,44.58
16,-0.02,0.97,0.11,49.53
16,-0.03,0.99,0.13,49.53
16,-0.04,1.02,0.12,47.99
16,-0.04,1.02,0.11,41.66
16,-0.01,0.98,0.11,41.66
16,-0.05,1.01,0.15,42.04
16,-0.05,1.01,0.11,47.17
16,-0.02,0.99,0.11,47.63
16,-0.03,0.99,0.13,43.71
16,-0.03,0.96,0.12,45.06
16,-0.04,1.02,0.12,44.17
16,-0.02,0.98,0.12,44.17
16,-0.02,1.00,0.14,42.92
16,-0.04,1.00,0.18,38.88
16,-0.03,1.01,0.12,38.88
16,-0.01,0.98,0.12,41.00
16,-0.01,0.98,0.13,44.10
16,-0.06,1.02,0.13,44.10
16,-0.01,0.98,0.11,42.73
16,-0.01,0.99,0.13,43.78
16,-0.04,0.99,0.13,43.56
16,-0.05,1.02,0.12,43.56
16,-0.05,0.97,0.11,46.62
16,-0.00,0.97,0.11,41.50
16,-0.05,1.02,0.14,41.50
16,-0.02,1.00,0.11,42.10
16,-0.02,1.00,0.07,41.77
16,-0.02,0.98,0.13,41.77
16,-0.04,1.03,0.13,46.12
16,-0.04,1.03,0.11,43.42
16,-0.01,0.98,0.11,43.44
16,-0.03,1.00,0.14,41.88
16,-0.03,1.02,0.12,39.51
16,-0.03,1.02,0.12,47.01
16,-0.02,0.97,0.12,47.01
16,-0.05,1.03,0.14,44.69
16,-0.05,1.03,0.18,40.17
16,-0.01,0.98,0.11,40.17
16,-0.03,0.99,0.13,39.53
16,-0.03,0.99,0.12,41.66
16,-0.05,1.04,0.12,41.66
16,-0.01,0.97,0.12,40.74
16,-0.01,0.95,0.14,45.90
16,-0.05,1.02,0.14,46.12
16,-0.02,1.01,0.11,39.07
16,-0.02,0.99,0.12,45.87
16,-0.01,0.99,0.12,48.60
16,-0.05,1.03,0.14,48.60
16,-0.01,0.98,0.12,39.18
16,-0.01,0.98,0.13,39.85
16,-0.04,1.00,0.13,39.85
16,-0.03,1.03,0.12,48.00
16,-0.03,1.05,0.12,45.36
16,-0.02,0.99,0.12,45.05
16,-0.05,1.02,0.14,41.13
16,-0.05,0.99,0.11,46.47
16,-0.01,0.99,0.11,40.90
16,-0.02,0.99,0.12,40.90
16,-0.05,1.03,0.13,40.10
16,-0.05,1.03,0.17,45.12
16,-0.01,0.98,0.11,45.12
16,-0.05,1.00,0.14,40.51
16,-0.05,1.00,0.12,42.34
16,-0.03,1.00,0.12,42.80
16,-0.01,0.97,0.12,41.24
16,-0.01,0.97,0.14,45.63
16,-0.05,1.03,0.14,42.29
16,-0.02,0.98,0.11,42.29
16,-0.02,1.00,0.14,36.74
16,-0.03,1.00,0.18,41.29
16,-0.04,1.02,0.12,41.29
16,-0.02,0.98,0.11,42.03
16,-0.02,0.98,0.13,47.31
16,-0.05,1.01,0.13,47.31
16,-0.02,1.00,0.10,39.68
16,-0.02,0.99,0.13,45.04
16,-0.03,0.99,0.13,44.92
16,-0.05,1.03,0.13,44.14
16,-0.05,0.99,0.12,46.76
16,-0.01,0.99,0.12,41.59
16,-0.04,1.01,0.14,41.59
16,-0.03,1.01,0.12,40.45
16,-0.03,1.01,0.06,43.58
16,-0.02,0.98,0.13,43.58
16,-0.05,1.03,0.14,46.99
16,-0.05,1.03,0.11,41.73
16,-0.01,0.98,0.11,41.62
16,-0.03,0.99,0.13,43.97
16,-0.03,1.03,0.13,39.31
16,-0.05,1.03,0.13,41.59
16,-0.02,0.98,0.11,41.59
16,-0.04,1.01,0.14,42.61
16,-0.04,1.01,0.18,40.36
16,-0.02,1.00,0.12,40.36
16,-0.02,0.98,0.12,42.15
16,-0.02,0.98,0.12,39.61
16,-0.04,1.03,0.12,39.61
16,-0.01,0.97,0.12,39.46
16,-0.01,0.94,0.13,41.90
16,-0.03,1.00,0.13,42.13
16,-0.04,1.02,0.13,40.56
16,-0.04,0.98,0.12,51.65
16,-0.03,0.98,0.07,46.90
16,-0.06,1.02,0.14,46.90
16,-0.02,0.99,0.12,38.78
16,-0.02,0.99,0.13,41.62
16,-0.03,0.99,0.13,41.62
16,-0.05,1.03,0.12,42.25
16,-0.05,1.04,0.12,46.56
16,-0.01,0.98,0.12,46.60
16,-0.04,1.00,0.14,44.25
16,-0.04,1.01,0.12,45.13
16,-0.03,1.01,0.12,44.21
16,-0.02,0.98,0.12,44.21
16,-0.05,1.03,0.13,41.79
16,-0.05,1.03,0.13,43.11
16,-0.01,0.99,0.13,43.11
16,-0.03,0.99,0.14,41.85
16,-0.03,0.99,0.12,37.57
16,-0.04,1.03,0.12,38.17
16,-0.01,0.97,0.12,43.66
16,-0.01,0.94,0.14,44.70
16,-0.06,1.01,0.14,38.86
16,-0.02,0.99,0.11,38.86
16,-0.02,0.98,0.11,47.02
16,-0.02,0.98,0.07,41.39
16,-0.04,1.03,0.14,41.39
16,-0.01,0.98,0.11,38.50
16,-0.01,0.98,0.15,39.74
16,-0.05,1.01,0.15,39.74
16,-0.02,1.01,0.12,50.10
16,-0.02,1.04,0.12,40.19
16,-0.01,0.98,0.12,40.48
16,-0.06,1.01,0.13,38.13
16,-0.06,0.99,0.12,39.46
16,-0.01,0.99,0.12,41.87
16,-0.03,0.99,0.14,41.87
16,-0.04,1.03,0.12,41.78
16,-0.04,1.03,0.11,40.52
16,-0.02,0.97,0.11,40.52
16,-0.05,1.01,0.14,43.87
16,-0.05,1.01,0.11,42.15
16,-0.02,1.00,0.11,42.11
16,-0.03,0.99,0.12,44.46
16,-0.03,0.96,0.12,42.23
16,-0.05,1.02,0.12,44.28
16,-0.02,0.97,0.12,44.28
16,-0.04,1.00,0.14,45.71
16,-0.04,1.00,0.17,43.63
16,-0.04,1.01,0.11,43.63
16,-0.01,0.97,0.11,44.80
16,-0.01,0.97,0.15,40.29
16,-0.06,1.02,0.15,40.29
16,-0.01,0.98,0.11,44.27
16,-0.01,0.99,0.12,40.98
16,-0.03,0.99,0.12,41.10
16,-0.04,1.02,0.12,46.59
16,-0.04,0.98,0.11,41.60
16,-0.01,0.98,0.11,43.28
16,-0.05,1.02,0.14,43.28
16,-0.03,1.01,0.11,40.80
16,-0.03,1.01,0.13,40.39
16,-0.02,0.98,0.13,40.39
16,-0.05,1.02,0.14,45.12
16,-0.05,1.04,0.12,42.49
16,-0.02,0.98,0.12,42.89
16,-0.04,1.00,0.13,43.68
16,-0.04,1.01,0.11,43.30
16,-0.04,1.01,0.11,43.71
16,-0.01,0.97,0.12,43.71
16,-0.05,1.02,0.15,40.07
16,-0.05,1.02,0.18,42.23
16,-0.02,0.99,0.11,42.23
16,-0.04,0.99,0.13,44.85
16,-0.04,0.99,0.12,42.17
16,-0.05,1.03,0.12,42.17
16,-0.01,0.98,0.10,39.21
16,-0.01,0.94,0.13,45.39
16,-0.03,1.00,0.13,41.74
16,-0.02,1.00,0.11,41.74
16,-0.02,0.99,0.11,45.39
16,-0.01,0.99,0.06,44.20
16,-0.05,1.03,0.13,44.20
16,-0.01,0.98,0.11,41.97
16,-0.01,0.98,0.13,46.38
16,-0.04,1.00,0.13,46.38
16,-0.03,1.03,0.13,41.59
16,-0.03,1.03,0.11,41.09
16,-0.02,0.97,0.11,41.05
16,-0.05,1.01,0.13,38.70
16,-0.05,1.00,0.11,44.56
16,-0.02,1.00,0.11,45.56
16,-0.02,0.98,0.14,45.56
16,-0.05,1.03,0.13,46.12
16,-0.05,1.03,0.18,43.85
16,-0.01,0.97,0.12,43.85
16,-0.05,1.02,0.13,39.10
16,-0.05,1.02,0.12,46.88
16,-0.02,1.02,0.12,46.72
17,-0.02,0.96,0.14,43.92
17,-0.04,1.02,0.14,43.39
17,-0.03,1.00,0.12,43.39
17,-0.03,0.98,0.12,40.20
17,-0.03,0.98,0.07,41.58
17,-0.05,1.02,0.13,41.58
17,-0.01,0.99,0.12,41.26
17,-0.01,0.99,0.14,48.01
17,-0.04,1.00,0.14,48.01
17,-0.03,1.01,0.12,45.80
17,-0.03,1.04,0.12,46.96
17,-0.02,0.98,0.12,47.57
17,-0.05,1.02,0.14,47.57
17,-0.05,0.99,0.12,45.10
17,-0.02,0.99,0.12,37.90
17,-0.03,0.99,0.13,37.90
17,-0.04,1.02,0.13,46.00
17,-0.04,1.02,0.17,46.49
17,-0.02,0.97,0.11,46.49
17,-0.05,1.01,0.13,38.77
17,-0.05,1.01,0.12,42.50
17,-0.02,1.01,0.12,42.93
17,-0.02,0.99,0.11,42.93
17,-0.02,1.03,0.13,51.95
17,-0.04,1.03,0.13,43.88
17,-0.02,0.98,0.11,43.88
17,-0.04,1.00,0.13,42.52
17,-0.04,1.00,0.18,38.18
17,-0.04,1.03,0.12,38.18
17,-0.02,0.98,0.12,46.20
17,-0.02,0.98,0.14,38.47
17,-0.05,1.01,0.14,38.47
17,-0.02,1.00,0.11,43.99
17,-0.02,0.99,0.13,38.88
17,-0.02,0.99,0.13,47.95
17,-0.05,1.03,0.13,47.95
17,-0.05,0.98,0.12,37.68
17,-0.01,0.98,0.07,43.21
17,-0.04,1.00,0.14,43.21
17,-0.03,1.01,0.11,42.74
17,-0.03,1.01,0.12,42.72
17,-0.02,0.97,0.12,42.72
17,-0.06,1.02,0.14,46.32
17,-0.06,1.05,0.12,38.40
17,-0.02,0.99,0.12,38.52
17,-0.03,1.00,0.13,40.87
17,-0.03,1.02,0.13,44.12
17,-0.04,1.02,0.13,41.62
17,-0.00,0.98,0.11,41.62
17,-0.05,1.01,0.14,38.02
17,-0.05,1.01,0.13,38.92
17,-0.02,1.00,0.13,38.92
17,-0.01,0.99,0.11,41.73
17,-0.01,0.99,0.14,39.10
17,-0.05,1.03,0.14,39.58
17,-0.01,0.98,0.11,43.49
17,-0.01,0.94,0.13,45.14
17,-0.05,1.00,0.13,47.46
17,-0.03,1.01,0.12,47.46
17,-0.03,0.98,0.12,40.54
17,-0.02,0.98,0.08,43.72
17,-0.06,1.02,0.14,43.72
17,-0.02,0.98,0.11,35.47
17,-0.02,0.98,0.12,42.62
17,-0.04,0.99,0.12,42.62
17,-0.04,1.03,0.13,45.29
17,-0.04,1.03,0.12,45.85
17,-0.01,0.97,0.12,45.82
17,-0.05,1.02,0.13,42.69
17,-0.05,1.01,0.11,41.22
17,-0.02,1.01,0.11,41.03
17,-0.01,0.99,0.13,41.03
17,-0.05,1.03,0.14,45.87
17,-0.05,1.03,0.17,45.95
17,-0.02,0.98,0.11,45.95
17,-0.03,1.00,0.13,45.04
17,-0.03,1.00,0.12,44.16
17,-0.03,1.02,0.12,43.90
17,-0.01,0.97,0.12,43.12
17,-0.01,1.01,0.13,40.23
17,-0.05,1.01,0.13,41.45
17,-0.03,0.99,0.11,41.45
17,-0.03,0.99,0.13,45.98
17,-0.03,0.99,0.13,39.20
17,-0.05,1.02,0.13,39.20
17,-0.02,0.98,0.12,47.64
17,-0.02,0.98,0.14,43.08
17,-0.04,1.02,0.14,43.08
17,-0.03,1.00,0.13,42.85
17,-0.03,1.03,0.11,43.83
17,-0.02,0.97,0.11,44.17
17,-0.04,1.03,0.13,41.04
17,-0.04,0.99,0.11,46.25
17,-0.02,0.99,0.11,44.43
17,-0.04,1.00,0.14,44.43
17,-0.03,1.01,0.12,41.21
17,-0.03,1.01,0.11,39.50
17,-0.02,0.97,0.11,39.50
17,-0.05,1.02,0.14,40.98
17,-0.05,1.05,0.12,43.50
17,-0.02,0.99,0.12,43.16
17,-0.03,0.99,0.13,44.73
17,-0.03,1.02,0.14,41.79
17,-0.04,1.02,0.14,38.25
17,-0.01,0.98,0.12,38.25
17,-0.05,1.00,0.13,36.89
17,-0.05,1.00,0.18,41.10
17,-0.02,1.01,0.12,41.10
17,-0.02,0.98,0.12,43.33
17,-0.02,0.98,0.14,40.89
17,-0.05,1.02,0.14,41.26
17,-0.01,0.98,0.11,37.34
17,-0.01,1.00,0.13,42.78
17,-0.03,1.00,0.13,44.71
17,-0.04,1.02,0.13,44.71
17,-0.04,0.98,0.11,47.20
17,-0.01,0.98,0.07,40.81
17,-0.05,1.01,0.13,40.81
17,-0.02,1.00,0.11,45.11
17,-0.02,1.00,0.12,41.52
17,-0.03,0.99,0.12,41.52
17,-0.05,1.02,0.14,43.57
17,-0.05,1.04,0.11,45.20
17,-0.02,0.98,0.11,44.64
17,-0.04,1.00,0.13,41.51
17,-0.04,1.01,0.12,44.66
17,-0.03,1.01,0.12,42.88
17,-0.01,0.98,0.11,42.88
17,-0.05,1.03,0.14,44.08
17,-0.05,1.03,0.18,44.02
17,-0.01,0.99,0.12,44.02
17,-0.03,1.00,0.12,41.32
17,-0.03,1.00,0.12,44.05
17,-0.04,1.03,0.12,43.95
17,-0.01,0.97,0.12,46.30
17,-0.01,1.00,0.14,40.91
17,-0.05,1.00,0.14,45.48
17,-0.02,1.00,0.11,45.48
17,-0.02,0.98,0.12,42.01
17,-0.02,0.98,0.07,44.52
17,-0.05,1.02,0.13,44.52
17,-0.01,0.99,0.11,40.96
17,-0.01,0.99,0.13,42.15
17,-0.04,1.00,0.13,42.15
17,-0.04,1.02,0.13,42.89
17,-0.04,1.05,0.12,41.30
17,-0.01,0.98,0.12,40.93
17,-0.06,1.02,0.13,42.49
17,-0.06,0.99,0.11,45.16
17,-0.03,0.99,0.07,47.34
17,-0.03,0.99,0.13,47.34
17,-0.05,1.02,0.13,40.41
17,-0.05,1.02,0.11,44.16
17,-0.01,0.99,0.11,44.16
17,-0.04,1.01,0.14,36.18
17,-0.04,1.01,0.11,38.48
17,-0.03,1.01,0.11,38.54
17,-0.02,0.98,0.12,46.38
17,-0.02,1.03,0.15,43.48
17,-0.05,1.03,0.15,45.26
17,-0.03,0.98,0.12,45.26
17,-0.03,1.00,0.12,46.75
17,-0.03,1.00,0.12,50.83
17,-0.04,1.02,0.12,50.83
17,-0.02,0.97,0.12,36.56
17,-0.02,0.97,0.15,47.12
17,-0.05,1.02,0.15,47.31
17,-0.02,0.99,0.12,46.53
17,-0.02,0.98,0.13,39.67
17,-0.01,0.98,0.13,44.82
17,-0.05,1.03,0.14,44.82
17,-0.05,0.98,0.11,36.45
17,-0.02,0.98,0.08,41.14
17,-0.04,1.01,0.14,41.14
17,-0.03,1.02,0.12,43.39
17,-0.03,1.02,0.11,38.04
17,-0.02,0.98,0.11,38.04
17,-0.05,1.02,0.14,42.67
17,-0.05,1.06,0.11,45.05
17,-0.01,1.00,0.11,45.21
17,-0.03,1.00,0.12,39.73
17,-0.03,1.03,0.13,46.20
17,-0.04,1.03,0.13,47.55
17,-0.01,0.98,0.12,47.55
17,-0.05,1.01,0.14,44.45
17,-0.05,1.01,0.13,43.80
17,-0.02,1.00,0.13,43.80
17,-0.03,0.98,0.12,44.62
17,-0.03,0.98,0.14,42.36
17,-0.05,1.02,0.14,42.60
17,-0.01,0.99,0.11,45.73
17,-0.01,1.00,0.13,45.63
17,-0.04,1.00,0.13,39.28
17,-0.04,1.01,0.12,39.28
17,-0.01,0.97,0.12,37.67
17,-0.01,0.97,0.08,37.10
17,-0.05,1.02,0.14,37.10
17,-0.02,0.99,0.11,41.19
17,-0.02,0.99,0.12,48.48
17,-0.02,0.99,0.12,48.48
17,-0.05,1.03,0.13,43.88
17,-0.05,1.04,0.11,44.20
17,-0.02,0.98,0.11,44.00
17,-0.04,1.01,0.13,43.21
17,-0.04,1.00,0.12,38.57
17,-0.03,1.00,0.12,40.36
17,-0.02,0.99,0.12,40.36
17,-0.05,1.03,0.14,41.28
17,-0.05,1.03,0.11,40.74
17,-0.02,0.99,0.11,40.74
17,-0.04,1.00,0.13,44.75
17,-0.04,0.95,0.13,41.07
17,-0.04,1.02,0.13,41.10
17,-0.01,0.99,0.11,46.59
17,-0.01,1.01,0.14,45.83
17,-0.05,1.01,0.14,49.84
17,-0.02,1.00,0.12,49.84
17,-0.02,0.99,0.13,40.78
17,-0.02,0.99,0.13,42.82
17,-0.04,1.02,0.13,42.82
17,-0.02,0.98,0.11,42.06
17,-0.02,0.98,0.14,42.00
17,-0.04,1.00,0.14,42.20
17,-0.03,1.00,0.11,43.77
17,-0.03,1.04,0.13,39.86
17,-0.02,0.98,0.13,41.75
17,-0.06,1.02,0.14,41.75
17,-0.06,0.98,0.11,42.60
17,-0.02,0.98,0.12,42.44
17,-0.03,0.99,0.12,42.44
17,-0.04,1.02,0.12,46.66
17,-0.04,1.02,0.12,40.90
18,-0.04,1.01,0.13,43.52
18,-0.04,1.01,0.11,39.98
18,-0.03,1.01,0.11,40.62
18,-0.01,0.98,0.12,45.32
18,-0.01,0.96,0.13,38.13
18,-0.05,1.03,0.13,39.09
18,-0.02,0.99,0.12,39.09
18,-0.02,0.99,0.13,42.88
18,-0.03,0.99,0.13,48.20
18,-0.04,1.03,0.13,48.20
18,-0.01,0.98,0.12,39.87
18,-0.01,0.98,0.15,38.79
18,-0.05,1.00,0.15,38.79
18,-0.02,1.00,0.11,45.37
18,-0.02,1.04,0.12,41.75
18,-0.02,0.98,0.12,41.63
18,-0.05,1.03,0.12,44.76
18,-0.05,0.99,0.13,40.48
18,-0.02,0.99,0.13,43.09
18,-0.03,1.00,0.14,43.09
18,-0.03,1.01,0.13,43.60
18,-0.03,1.01,0.13,42.04
18,-0.01,0.99,0.13,42.04
18,-0.05,1.01,0.14,43.80
18,-0.05,1.06,0.12,45.40
18,-0.03,1.00,0.12,46.12
18,-0.02,0.99,0.13,39.86
18,-0.02,1.03,0.13,44.90
18,-0.04,1.03,0.13,45.50
18,-0.02,0.98,0.13,45.50
18,-0.04,1.01,0.14,42.06
18,-0.04,1.01,0.19,45.65
18,-0.03,1.01,0.12,45.65
18,-0.02,0.99,0.12,42.14
18,-0.02,0.99,0.13,43.36
18,-0.05,1.02,0.13,43.54
18,-0.01,0.98,0.12,42.76
18,-0.01,0.99,0.12,41.18
18,-0.04,0.99,0.12,43.81
18,-0.04,1.01,0.12,43.81
18,-0.04,0.98,0.12,41.81
18,-0.02,0.98,0.09,46.05
18,-0.05,1.02,0.15,46.05
18,-0.02,0.99,0.11,46.51
18,-0.02,0.99,0.13,43.57
18,-0.03,1.00,0.13,43.57
18,-0.04,1.02,0.14,42.72
18,-0.04,1.04,0.11,42.12
18,-0.03,0.98,0.11,41.67
18,-0.04,1.02,0.13,45.58
18,-0.04,1.00,0.13,43.56
18,-0.03,1.00,0.13,43.26
18,-0.02,0.98,0.13,43.26
18,-0.05,1.01,0.14,42.11
18,-0.05,1.01,0.19,46.01
18,-0.02,0.98,0.12,46.01
18,-0.04,1.00,0.13,41.47
18,-0.04,1.00,0.13,39.72
18,-0.04,1.02,0.13,39.58
18,-0.02,0.98,0.11,42.71
18,-0.02,0.95,0.14,40.23
18,-0.05,1.01,0.14,40.52
18,-0.02,1.01,0.12,40.52
18,-0.02,0.98,0.12,37.90
18,-0.03,0.98,0.12,34.90
18,-0.05,1.02,0.12,34.90
18,-0.02,0.98,0.12,36.67
18,-0.02,0.98,0.13,47.71
18,-0.04,1.01,0.13,47.71
18,-0.04,1.01,0.13,42.12
18,-0.04,1.04,0.11,42.05
18,-0.02,0.98,0.11,42.03
18,-0.05,1.02,0.13,43.60
18,-0.05,0.99,0.11,42.44
18,-0.02,0.99,0.11,42.68
18,-0.03,0.99,0.13,42.68
18,-0.04,1.03,0.13,39.16
18,-0.04,1.03,0.18,40.52
18,-0.02,0.98,0.12,40.52
18,-0.04,1.01,0.13,40.21
18,-0.04,1.00,0.11,39.95
18,-0.02,1.00,0.11,40.13
18,-0.02,0.97,0.13,42.48
18,-0.02,1.02,0.14,45.48
18,-0.04,1.02,0.14,45.50
18,-0.02,0.98,0.13,45.50
18,-0.04,1.00,0.12,41.00
18,-0.04,1.00,0.12,45.22
18,-0.04,1.02,0.12,45.22
18,-0.02,0.99,0.13,42.03
