seconds, accX, accY, accZ, temp
1,-0.02,1.15,0.13,39.85
1,-0.02,1.18,0.07,39.61
1,-0.19,1.18,0.07,42.00
1,-0.00,0.90,0.03,42.00
1,-0.06,0.80,0.08,44.10
1,0.19,0.80,0.12,38.33
1,0.03,1.06,0.12,38.33
1,-0.19,1.21,0.08,41.29
1,-0.19,1.22,0.02,41.37
1,-0.09,0.97,0.02,41.27
1,0.17,0.79,0.06,37.36
1,0.17,0.99,0.12,42.06
1,0.11,0.99,0.12,41.19
1,-0.14,1.23,0.12,41.19
1,-0.13,1.06,0.04,40.47
1,-0.13,1.06,0.06,42.28
1,0.12,0.81,0.06,42.28
1,0.16,0.91,0.11,40.50
1,0.16,0.91,0.12,44.17
1,-0.10,1.19,0.12,44.22
1,-0.18,1.12,0.04,37.17
1,-0.18,1.09,0.05,44.70
1,0.06,0.84,0.05,42.29
1,0.18,0.84,0.09,42.29
1,0.18,1.14,0.13,41.13
1,-0.04,1.14,0.18,43.50
1,-0.19,1.18,0.06,43.50
1,-0.19,0.91,0.03,40.06
1,-0.01,0.91,0.09,40.80
1,0.18,0.81,0.09,40.80
1,0.05,1.06,0.12,38.89
1,0.05,1.03,0.10,41.89
1,-0.17,1.21,0.10,42.17
1,-0.07,0.98,0.03,39.82
1,-0.07,0.78,0.06,39.06
1,0.16,0.78,0.06,38.01
1,0.11,0.98,0.11,38.01
1,0.11,1.22,0.10,34.97
1,-0.14,1.22,0.04,37.06
1,-0.13,1.05,0.04,37.06
1,0.12,0.80,0.06,40.93
1,0.12,0.78,0.10,46.85
1,0.15,0.91,0.10,46.73
1,-0.10,1.19,0.11,35.76
1,-0.10,1.12,0.05,36.44
1,-0.16,1.12,0.05,39.81
1,0.06,0.85,0.05,39.81
1,0.05,0.85,0.09,37.09
1,0.18,0.85,0.06,39.24
1,-0.04,1.14,0.13,39.24
1,-0.18,1.17,0.08,39.31
1,-0.18,1.17,0.04,42.65
1,-0.01,0.90,0.04,42.35
1,0.18,0.81,0.07,40.00
1,0.18,0.81,0.13,40.95
1,0.04,1.06,0.13,37.66
1,-0.17,1.20,0.08,37.66
1,-0.13,0.98,0.04,39.78
1,-0.06,0.98,0.01,37.43
1,0.16,0.80,0.07,37.43
1,0.09,0.99,0.13,42.37
1,0.09,0.99,0.11,42.22
1,-0.15,1.21,0.11,42.22
1,-0.13,1.04,0.04,40.65
1,-0.13,1.01,0.04,39.57
1,0.12,0.82,0.04,42.26
1,0.14,0.91,0.10,42.26
1,0.14,1.18,0.11,43.72
1,-0.09,1.18,0.12,44.18
1,-0.16,1.11,0.06,44.18
1,-0.19,0.85,0.05,42.53
1,0.06,0.85,0.09,45.36
1,0.17,0.85,0.09,45.36
1,-0.04,1.13,0.11,39.77
1,-0.04,1.17,0.06,36.63
1,-0.19,1.17,0.06,36.17
1,0.00,0.90,0.04,36.96
1,0.00,0.81,0.07,34.85
1,0.16,0.81,0.07,39.67
1,0.03,1.06,0.13,39.67
1,0.02,1.20,0.08,39.63
1,-0.17,1.20,0.10,41.35
1,-0.06,0.98,0.04,41.35
1,0.15,0.79,0.06,41.25
1,0.15,0.79,0.11,45.43
1,0.08,0.98,0.11,45.76
1,-0.14,1.20,0.11,44.98
1,-0.14,1.05,0.05,39.08
1,-0.11,1.05,0.05,45.20
1,0.11,0.81,0.06,45.20
1,0.07,0.92,0.11,44.49
1,0.14,0.92,0.12,41.55
1,-0.10,1.19,0.12,41.55
1,-0.15,1.11,0.05,43.89
1,-0.15,1.11,0.05,43.05
1,0.06,0.86,0.05,43.11
1,0.17,0.86,0.09,36.06
1,0.17,0.81,0.12,39.24
1,-0.04,1.13,0.12,35.71
1,-0.17,1.17,0.07,35.71
1,-0.18,0.91,0.04,39.83
1,0.01,0.91,0.00,35.41
1,0.17,0.82,0.07,35.41
1,0.02,1.06,0.12,37.21
1,0.02,1.06,0.09,40.32
1,-0.17,1.19,0.09,40.32
1,-0.06,0.97,0.04,36.44
1,-0.06,1.00,0.07,40.25
1,0.15,0.81,0.07,40.14
1,0.08,0.98,0.11,40.14
1,0.08,1.20,0.10,35.21
1,-0.14,1.20,0.11,36.62
1,-0.10,1.04,0.04,36.62
1,-0.07,0.81,0.05,37.81
1,0.11,0.81,0.10,36.93
1,0.13,0.91,0.10,36.93
1,-0.09,1.18,0.11,41.87
1,-0.09,1.17,0.06,47.01
1,-0.15,1.11,0.06,47.48
1,0.07,0.85,0.04,45.13
1,0.07,0.85,0.09,41.66
1,0.16,0.85,0.09,37.00
1,-0.05,1.12,0.11,37.00
1,-0.04,1.16,0.08,40.21
1,-0.17,1.16,0.11,43.73
1,0.01,0.91,0.04,43.73
1,0.16,0.81,0.08,43.96
1,0.16,0.87,0.12,40.74
1,0.02,1.06,0.12,40.73
1,-0.16,1.19,0.09,45.43
1,-0.16,0.97,0.04,41.03
1,-0.05,0.97,0.04,41.41
1,0.16,0.81,0.06,41.41
1,0.14,0.99,0.10,44.39
1,0.08,0.99,0.11,37.06
1,-0.13,1.19,0.11,37.06
1,-0.10,1.05,0.05,39.59
1,-0.10,1.05,0.06,40.71
1,0.11,0.82,0.06,40.91
1,0.13,0.93,0.09,35.43
1,0.13,0.92,0.11,42.45
1,-0.10,1.17,0.11,36.12
1,-0.13,1.11,0.05,36.12
1,-0.13,0.86,0.05,39.71
1,0.07,0.86,0.02,38.68
1,0.16,0.87,0.08,38.68
1,-0.04,1.12,0.11,35.18
1,-0.04,1.12,0.07,44.22
1,-0.16,1.16,0.07,44.22
1,0.02,0.91,0.04,42.15
1,0.02,0.89,0.08,40.80
1,0.16,0.83,0.08,40.69
1,0.01,1.06,0.12,40.69
1,0.01,1.18,0.10,42.93
1,-0.16,1.18,0.11,39.67
1,-0.04,0.97,0.05,39.67
1,-0.04,0.81,0.07,39.78
1,0.15,0.81,0.10,40.78
1,0.07,0.98,0.10,40.78
1,-0.14,1.19,0.10,42.59
1,-0.14,1.23,0.06,48.02
1,-0.10,1.04,0.06,47.81
1,0.12,0.83,0.06,39.98
1,0.12,0.91,0.10,40.54
1,0.12,0.91,0.10,39.43
1,-0.11,1.17,0.11,39.43
1,-0.07,1.10,0.07,35.82
1,-0.13,1.10,0.12,38.23
1,0.07,0.86,0.06,38.23
1,0.15,0.87,0.09,38.87
1,0.15,0.87,0.12,40.48
1,-0.05,1.13,0.12,40.07
1,-0.16,1.15,0.07,40.07
1,-0.16,0.91,0.05,45.37
1,0.01,0.91,0.05,42.56
1,0.16,0.84,0.07,42.56
1,0.13,1.06,0.10,40.28
1,0.01,1.06,0.09,41.95
1,-0.14,1.18,0.09,41.95
1,-0.03,0.97,0.04,43.16
1,-0.03,0.97,0.07,42.82
1,0.14,0.82,0.07,42.34
1,0.07,0.99,0.11,40.77
1,0.07,1.00,0.10,37.82
1,-0.13,1.19,0.10,40.64
1,-0.09,1.04,0.06,40.64
1,-0.07,0.82,0.05,40.66
1,0.11,0.82,0.04,46.55
1,0.11,0.92,0.10,46.55
1,-0.09,1.17,0.11,44.52
1,-0.09,1.17,0.07,43.05
1,-0.13,1.10,0.07,43.05
1,0.06,0.86,0.05,44.97
1,0.06,0.87,0.09,44.46
1,0.14,0.87,0.09,41.28
1,-0.05,1.11,0.09,41.28
1,-0.05,1.14,0.07,39.55
1,-0.16,1.14,0.12,39.75
1,0.02,0.92,0.06,39.75
1,0.03,0.83,0.08,41.93
1,0.16,0.83,0.11,35.70
1,0.00,1.05,0.11,35.70
1,-0.16,1.17,0.08,36.67
1,-0.16,1.15,0.05,37.78
1,-0.03,0.97,0.05,37.94
1,0.14,0.83,0.07,41.08
1,0.14,0.99,0.11,40.02
1,0.06,0.99,0.11,41.15
1,-0.14,1.18,0.09,41.15
1,-0.15,1.04,0.05,38.89
1,-0.09,1.04,0.06,41.82
1,0.11,0.84,0.06,41.82
1,0.10,0.93,0.10,43.85
1,0.10,0.91,0.10,36.57
1,-0.10,1.16,0.10,36.50
1,-0.13,1.10,0.06,39.63
1,-0.13,0.87,0.05,45.83
1,0.07,0.87,0.05,36.32
1,0.12,0.88,0.10,36.32
1,0.07,1.12,0.11,40.36
1,-0.06,1.12,0.08,39.42
1,-0.14,1.15,0.08,39.42
1,0.02,0.91,0.06,38.14
1,0.02,0.91,0.07,39.61
2,0.06,1.18,0.09,44.30
2,-0.13,1.18,0.05,38.27
2,-0.07,1.03,0.05,38.27
2,0.11,0.84,0.06,46.76
2,0.11,0.81,0.10,39.68
2,0.11,0.94,0.10,39.74
2,-0.10,1.15,0.09,40.52
2,-0.10,1.10,0.07,37.79
2,-0.12,1.10,0.07,38.02
2,0.07,0.87,0.06,38.02
2,0.07,0.88,0.08,48.34
2,0.13,0.88,0.11,42.41
2,-0.05,1.11,0.11,42.41
2,-0.14,1.14,0.08,40.41
2,-0.14,1.14,0.06,40.77
2,0.03,0.93,0.06,40.96
2,0.15,0.85,0.07,39.39
2,0.15,0.81,0.11,45.05
2,-0.01,1.06,0.11,43.03
2,-0.14,1.17,0.08,43.03
2,-0.15,0.98,0.05,36.71
2,-0.03,0.98,0.01,38.04
2,0.14,0.83,0.07,38.04
2,0.04,0.99,0.11,42.23
2,0.04,0.99,0.09,41.51
2,-0.13,1.17,0.09,41.51
2,-0.07,1.04,0.05,41.37
2,-0.07,1.03,0.06,43.26
2,0.11,0.84,0.06,43.78
2,0.10,0.93,0.09,40.65
2,0.10,1.16,0.11,38.60
2,-0.10,1.16,0.06,44.37
2,-0.11,1.10,0.06,44.37
2,-0.12,0.87,0.06,41.43
2,0.07,0.87,0.08,36.03
2,0.12,0.89,0.08,36.03
2,-0.05,1.12,0.11,40.88
2,-0.05,1.07,0.06,42.32
2,-0.13,1.13,0.06,42.94
2,0.03,0.92,0.05,41.37
2,0.03,0.85,0.07,39.98
2,0.14,0.85,0.07,43.57
2,-0.00,1.05,0.11,43.57
2,-0.01,1.16,0.08,46.50
2,-0.14,1.16,0.12,43.68
2,-0.03,0.97,0.06,43.68
2,0.13,0.85,0.07,38.40
2,0.13,0.85,0.10,36.25
2,0.05,1.00,0.10,36.13
2,-0.13,1.16,0.10,39.26
2,-0.13,1.03,0.06,38.26
2,-0.07,1.03,0.06,45.90
2,0.10,0.84,0.07,45.90
2,0.10,0.94,0.09,35.91
2,0.10,0.94,0.10,42.52
2,-0.10,1.15,0.10,42.52
2,-0.10,1.09,0.06,38.54
2,-0.10,1.09,0.06,34.94
2,0.08,0.87,0.06,35.15
2,0.12,0.89,0.08,40.64
2,0.12,0.92,0.10,38.73
2,-0.05,1.11,0.10,37.67
2,-0.13,1.13,0.07,37.67
2,-0.13,0.92,0.06,46.55
2,0.03,0.92,0.02,38.65
2,0.13,0.85,0.08,38.65
2,-0.00,1.05,0.09,37.76
2,-0.00,1.05,0.09,39.21
2,-0.13,1.15,0.09,39.21
2,-0.02,0.98,0.05,42.00
2,-0.02,0.97,0.06,34.87
2,0.14,0.84,0.06,34.98
2,0.04,1.00,0.11,40.46
2,0.04,1.17,0.09,37.94
2,-0.12,1.17,0.12,38.78
2,-0.06,1.03,0.06,38.78
2,-0.08,0.86,0.07,40.29
2,0.11,0.86,0.10,39.65
2,0.09,0.94,0.10,39.65
2,-0.09,1.15,0.11,39.58
2,-0.09,1.14,0.07,38.64
2,-0.11,1.08,0.07,38.54
2,0.08,0.87,0.07,40.89
2,0.08,0.89,0.08,39.72
2,0.12,0.89,0.08,39.31
2,-0.06,1.11,0.11,39.31
2,-0.06,1.13,0.06,38.55
2,-0.13,1.13,0.12,43.63
2,0.03,0.92,0.06,43.63
2,0.13,0.86,0.07,44.75
2,0.13,0.86,0.11,37.13
2,-0.00,1.06,0.11,37.18
2,-0.13,1.16,0.08,41.88
2,-0.13,0.97,0.06,47.25
2,-0.01,0.97,0.06,42.01
2,0.13,0.85,0.07,42.01
2,0.16,1.00,0.09,37.29
2,0.03,1.00,0.10,40.55
2,-0.13,1.15,0.10,40.55
2,-0.06,1.03,0.07,41.87
2,-0.06,1.03,0.06,39.64
2,0.11,0.85,0.06,39.64
2,0.09,0.95,0.09,44.15
2,0.09,0.95,0.10,43.51
2,-0.10,1.14,0.10,39.14
2,-0.11,1.08,0.07,39.14
2,-0.11,0.88,0.06,36.79
2,0.07,0.88,0.02,42.52
2,0.11,0.89,0.08,42.52
2,0.07,1.10,0.11,39.43
2,-0.06,1.10,0.07,37.05
2,-0.12,1.13,0.07,37.05
2,0.04,0.93,0.06,42.12
2,0.04,0.92,0.08,40.22
2,0.13,0.86,0.08,40.34
2,-0.01,1.06,0.11,39.55
2,-0.01,1.15,0.08,39.93
2,-0.13,1.15,0.08,38.62
2,-0.02,0.98,0.06,38.62
2,-0.00,0.85,0.07,38.05
2,0.12,0.85,0.09,42.15
2,0.04,1.00,0.09,42.15
2,-0.12,1.15,0.09,43.09
2,-0.12,1.15,0.06,40.89
2,-0.05,1.02,0.06,41.03
2,0.11,0.85,0.07,47.30
2,0.11,0.94,0.09,44.42
2,0.07,0.94,0.09,42.23
2,-0.10,1.14,0.10,42.23
2,-0.09,1.08,0.06,40.54
2,-0.09,1.08,0.07,40.21
2,0.07,0.88,0.07,40.21
2,0.12,0.89,0.08,41.00
2,0.12,0.89,0.11,44.00
2,-0.06,1.10,0.11,44.22
2,-0.12,1.12,0.08,38.74
2,-0.12,1.12,0.06,38.65
2,0.04,0.93,0.06,38.57
2,0.12,0.87,0.08,38.57
2,0.10,1.04,0.09,38.91
2,-0.02,1.04,0.08,38.40
2,-0.14,1.14,0.08,38.40
2,-0.01,0.98,0.06,37.87
2,-0.01,0.98,0.07,42.33
2,0.12,0.85,0.07,42.33
2,0.04,1.00,0.09,40.86
2,0.04,0.96,0.09,38.39
2,-0.12,1.15,0.09,40.21
2,-0.06,1.02,0.06,40.21
2,-0.06,0.87,0.06,40.30
2,0.12,0.87,0.08,35.80
2,0.07,0.95,0.08,35.80
2,0.09,1.13,0.10,36.44
2,-0.09,1.13,0.07,42.53
2,-0.09,1.07,0.07,42.53
2,0.08,0.89,0.05,46.61
2,0.08,0.90,0.07,43.24
2,0.10,0.90,0.07,43.46
2,-0.06,1.10,0.11,39.55
2,-0.06,1.12,0.08,43.14
2,-0.12,1.12,0.08,41.01
2,0.03,0.92,0.06,41.01
2,0.05,0.87,0.07,35.27
2,0.12,0.87,0.10,47.73
2,-0.02,1.05,0.10,47.73
2,-0.12,1.14,0.08,43.47
2,-0.12,1.16,0.06,38.30
2,-0.01,0.97,0.06,38.20
2,0.12,0.86,0.07,39.77
2,0.12,1.00,0.10,39.32
2,0.03,1.00,0.10,46.02
2,-0.12,1.14,0.09,46.02
2,-0.12,1.02,0.06,37.20
2,-0.05,1.02,0.07,39.28
2,0.10,0.86,0.07,39.28
2,0.07,0.95,0.09,45.85
2,0.07,0.95,0.08,38.82
2,-0.10,1.13,0.08,38.45
2,-0.10,1.08,0.06,39.23
2,-0.10,1.06,0.07,41.01
2,0.07,0.88,0.07,40.68
2,0.09,0.91,0.09,40.68
2,0.12,1.10,0.09,39.94
2,-0.06,1.10,0.07,39.48
2,-0.11,1.11,0.07,39.48
2,0.05,0.93,0.07,43.84
2,0.05,0.93,0.08,36.87
2,0.12,0.87,0.08,36.87
2,-0.02,1.05,0.09,41.23
2,-0.02,1.01,0.08,37.88
2,-0.12,1.14,0.08,45.48
2,-0.01,0.97,0.06,45.48
2,-0.01,0.86,0.07,43.32
2,0.12,0.86,0.09,41.56
2,0.03,1.00,0.09,41.56
2,0.01,1.15,0.08,42.73
2,-0.12,1.15,0.06,42.33
2,-0.05,1.03,0.06,42.33
2,0.10,0.87,0.07,43.74
2,0.10,0.82,0.09,39.35
2,0.06,0.94,0.09,39.69
2,-0.10,1.13,0.09,38.12
2,-0.10,1.07,0.07,39.10
2,-0.07,1.07,0.07,37.18
2,0.08,0.89,0.06,37.18
2,0.10,0.91,0.08,40.82
2,0.10,0.91,0.09,41.13
2,-0.06,1.10,0.09,41.13
2,-0.11,1.11,0.07,41.70
2,-0.11,1.11,0.06,41.55
2,0.04,0.93,0.06,41.77
2,0.11,0.88,0.08,41.77
2,0.11,1.06,0.10,38.77
2,-0.03,1.06,0.10,42.67
2,-0.12,1.13,0.08,42.67
2,-0.07,0.97,0.06,43.07
2,-0.01,0.97,0.00,41.48
2,0.11,0.87,0.07,41.48
2,0.01,1.00,0.10,40.58
2,0.01,1.00,0.08,40.92
2,-0.12,1.14,0.08,41.41
2,-0.04,1.02,0.07,39.84
2,-0.04,1.06,0.07,38.90
2,0.10,0.87,0.07,39.84
2,0.05,0.95,0.10,39.84
2,0.05,1.13,0.09,33.96
2,-0.08,1.13,0.07,42.51
2,-0.08,1.06,0.07,42.51
2,0.07,0.90,0.06,35.14
2,0.07,0.90,0.08,41.00
2,0.09,0.91,0.08,41.00
2,-0.07,1.10,0.10,42.89
2,-0.07,1.11,0.08,40.92
3,0.11,0.87,0.07,41.41
3,0.11,0.87,0.10,40.96
3,0.02,1.00,0.10,40.96
3,-0.12,1.14,0.09,38.18
3,-0.12,1.14,0.07,43.52
3,-0.04,1.01,0.07,41.63
3,0.10,0.88,0.07,41.63
3,0.10,0.96,0.09,44.08
3,0.06,0.96,0.10,40.23
3,-0.10,1.13,0.10,40.23
3,-0.08,1.06,0.07,39.82
3,-0.08,1.06,0.06,42.91
3,0.08,0.90,0.06,42.91
3,0.09,0.92,0.08,42.00
3,0.09,0.91,0.09,40.04
3,-0.06,1.10,0.09,40.28
3,-0.09,1.10,0.07,43.41
3,-0.09,0.93,0.06,41.30
3,0.04,0.93,0.06,46.02
3,0.12,0.89,0.07,46.02
3,0.10,1.06,0.10,38.73
3,-0.02,1.06,0.08,38.08
3,-0.11,1.12,0.08,38.08
3,0.00,0.96,0.07,39.68
3,0.00,0.94,0.08,38.00
3,0.11,0.88,0.08,38.26
3,0.02,1.01,0.09,42.96
3,0.02,1.13,0.08,41.37
3,-0.12,1.13,0.08,35.19
3,-0.03,1.02,0.07,35.19
3,-0.02,0.88,0.07,41.07
3,0.10,0.88,0.09,41.65
3,0.05,0.96,0.09,41.65
3,-0.10,1.12,0.10,41.19
3,-0.10,1.12,0.06,41.35
3,-0.06,1.07,0.06,41.36
3,0.08,0.90,0.06,37.44
3,0.08,0.92,0.08,39.81
3,0.08,0.92,0.08,37.66
3,-0.06,1.09,0.10,37.66
3,-0.06,1.10,0.07,40.72
3,-0.09,1.10,0.07,38.47
3,0.04,0.93,0.07,38.47
3,0.11,0.89,0.08,39.54
3,0.11,0.89,0.09,39.14
3,-0.03,1.06,0.09,39.14
3,-0.12,1.11,0.08,42.40
3,-0.12,1.09,0.06,35.53
3,0.00,0.97,0.06,36.66
3,0.11,0.88,0.07,36.66
3,0.11,1.01,0.09,47.22
3,0.01,1.01,0.08,38.31
3,-0.10,1.12,0.08,38.31
3,-0.09,1.01,0.07,35.72
3,-0.03,1.01,0.06,46.25
3,0.10,0.88,0.06,46.25
3,0.05,0.96,0.09,36.40
3,0.05,1.00,0.09,41.18
3,-0.09,1.12,0.09,41.28
3,-0.07,1.06,0.07,41.28
3,-0.07,0.90,0.07,42.45
3,0.07,0.90,0.07,42.92
3,0.08,0.92,0.08,42.92
3,0.12,1.09,0.09,41.66
3,-0.07,1.09,0.07,35.75
3,-0.09,1.10,0.07,35.75
3,0.04,0.93,0.07,38.37
3,0.04,0.89,0.08,40.37
3,0.09,0.89,0.08,40.41
3,-0.03,1.06,0.09,40.41
3,-0.03,1.12,0.08,36.66
3,-0.10,1.12,0.08,40.80
3,0.00,0.97,0.07,40.80
3,0.04,0.88,0.08,41.29
3,0.10,0.88,0.10,41.18
3,0.00,1.01,0.10,41.18
3,-0.10,1.12,0.08,38.82
3,-0.10,1.12,0.07,38.94
3,-0.02,1.01,0.07,39.01
3,0.09,0.88,0.07,42.93
3,0.09,0.90,0.09,40.56
3,0.04,0.96,0.09,38.84
3,-0.10,1.11,0.09,38.84
3,-0.10,1.05,0.07,40.55
3,-0.07,1.05,0.07,38.74
3,0.08,0.90,0.07,38.74
3,0.07,0.92,0.09,38.47
3,0.07,0.92,0.10,37.42
3,-0.07,1.09,0.10,37.42
3,-0.09,1.09,0.08,40.11
3,-0.09,1.12,0.07,41.29
3,0.05,0.94,0.07,41.08
3,0.09,0.90,0.07,44.21
3,0.09,1.05,0.10,42.00
3,-0.03,1.05,0.07,38.31
3,-0.10,1.11,0.07,38.31
3,-0.11,0.97,0.06,40.31
3,0.02,0.97,0.08,36.63
3,0.10,0.88,0.08,36.63
3,-0.00,1.01,0.09,36.80
3,-0.00,1.06,0.08,45.79
3,-0.10,1.12,0.08,45.63
3,-0.02,1.02,0.08,42.50
3,-0.02,0.89,0.07,39.98
3,0.09,0.89,0.07,37.53
3,0.05,0.97,0.08,37.53
3,0.03,1.11,0.10,39.40
3,-0.09,1.11,0.07,41.90
3,-0.06,1.05,0.07,41.90
3,0.07,0.90,0.06,42.56
3,0.07,0.90,0.09,40.76
3,0.07,0.92,0.09,40.96
3,-0.07,1.09,0.10,41.75
3,-0.07,1.08,0.08,36.60
3,-0.09,1.08,0.08,41.96
3,0.04,0.93,0.07,41.96
3,0.03,0.91,0.08,38.91
3,0.09,0.91,0.09,43.14
3,-0.03,1.05,0.09,43.14
3,-0.09,1.11,0.08,46.87
3,-0.09,1.11,0.06,37.73
3,0.02,0.98,0.06,37.94
3,0.10,0.89,0.07,44.21
3,0.10,0.88,0.10,36.33
3,-0.00,1.01,0.10,40.48
3,-0.10,1.12,0.08,40.48
3,-0.10,1.01,0.08,44.38
3,-0.03,1.01,0.07,38.27
3,0.10,0.89,0.07,38.27
3,0.10,0.97,0.09,33.73
3,0.03,0.97,0.08,41.43
3,-0.09,1.11,0.08,41.43
3,-0.06,1.04,0.07,37.07
3,-0.06,1.03,0.07,37.17
3,0.07,0.90,0.07,37.20
3,0.07,0.93,0.09,37.99
3,0.07,1.09,0.09,41.54
3,-0.07,1.09,0.09,41.40
3,-0.08,1.09,0.07,41.40
3,-0.08,0.93,0.06,41.59
3,0.04,0.93,0.07,40.21
3,0.09,0.90,0.07,40.21
3,-0.02,1.05,0.09,40.98
3,-0.02,1.04,0.08,35.43
3,-0.09,1.10,0.08,35.39
3,0.02,0.98,0.07,36.18
3,0.02,0.89,0.07,34.93
3,0.10,0.89,0.07,41.17
3,-0.00,1.00,0.09,41.17
3,-0.03,1.11,0.08,37.73
3,-0.09,1.11,0.08,41.60
3,-0.02,1.01,0.08,41.60
3,0.10,0.90,0.08,39.46
3,0.10,0.90,0.09,43.65
3,0.04,0.97,0.09,43.65
3,-0.09,1.10,0.08,37.39
3,-0.09,1.04,0.07,38.11
3,-0.06,1.04,0.07,43.00
3,0.08,0.91,0.07,43.00
3,0.12,0.94,0.08,39.18
3,0.06,0.94,0.09,37.75
3,-0.07,1.09,0.09,37.75
3,-0.08,1.07,0.07,39.42
3,-0.08,1.07,0.07,37.93
3,0.05,0.94,0.07,37.93
3,0.09,0.91,0.08,44.61
3,0.09,0.93,0.09,43.26
3,-0.04,1.06,0.09,44.54
3,-0.09,1.10,0.08,44.54
3,-0.09,0.97,0.06,38.58
3,0.02,0.97,0.02,39.06
3,0.10,0.89,0.08,39.06
3,0.12,1.02,0.09,45.10
3,-0.00,1.02,0.08,40.86
3,-0.10,1.11,0.08,40.86
3,-0.02,1.00,0.07,40.79
3,-0.02,0.96,0.08,36.67
3,0.09,0.90,0.08,36.67
3,0.02,0.97,0.09,42.16
3,0.02,1.10,0.09,37.71
3,-0.09,1.10,0.09,37.44
3,-0.06,1.04,0.07,37.44
3,-0.04,0.91,0.08,36.25
3,0.08,0.91,0.08,40.38
3,0.05,0.94,0.08,40.38
3,-0.06,1.09,0.08,36.74
3,-0.06,1.07,0.09,37.78
3,-0.07,1.07,0.09,37.93
3,0.05,0.93,0.07,41.06
3,0.05,0.93,0.09,39.91
3,0.08,0.93,0.09,42.06
3,-0.03,1.05,0.09,42.06
3,-0.02,1.09,0.08,36.86
3,-0.09,1.09,0.07,40.13
3,0.02,0.97,0.07,40.13
3,0.10,0.90,0.07,38.12
3,0.10,0.90,0.10,38.09
3,-0.01,1.02,0.10,37.65
3,-0.10,1.10,0.09,43.13
3,-0.10,1.07,0.07,43.53
3,-0.02,1.01,0.07,45.33
3,0.08,0.90,0.07,45.33
3,0.08,0.98,0.09,42.22
3,0.02,0.98,0.10,35.38
3,-0.08,1.10,0.10,35.38
3,-0.04,1.04,0.07,40.27
3,-0.04,1.04,0.07,34.98
3,0.07,0.91,0.07,34.98
3,0.06,0.95,0.07,44.64
3,0.06,0.96,0.08,46.75
3,-0.06,1.08,0.08,46.29
3,-0.07,1.07,0.07,46.29
3,-0.07,0.93,0.07,39.32
3,0.05,0.93,0.08,34.64
3,0.08,0.91,0.08,34.64
3,0.09,1.06,0.09,39.21
3,-0.04,1.06,0.08,39.36
3,-0.10,1.09,0.08,39.36
3,0.02,0.97,0.07,42.61
3,0.02,0.96,0.07,46.05
3,0.09,0.90,0.07,45.44
3,-0.00,1.01,0.08,39.96
3,-0.00,1.11,0.08,41.78
3,-0.09,1.11,0.08,38.06
3,-0.02,1.01,0.07,38.06
3,-0.04,0.90,0.08,38.94
3,0.09,0.90,0.09,41.99
3,0.02,0.97,0.09,41.99
3,-0.09,1.10,0.07,44.05
3,-0.09,1.11,0.07,40.56
3,-0.04,1.05,0.07,40.26
3,0.07,0.91,0.07,44.96
3,0.07,0.95,0.08,37.14
4,-0.08,1.10,0.08,41.75
4,-0.08,1.09,0.07,37.59
4,0.01,0.96,0.07,38.01
4,0.09,0.90,0.08,39.58
4,0.09,1.01,0.09,40.20
4,-0.00,1.01,0.08,37.33
4,-0.10,1.10,0.08,37.33
4,-0.07,1.00,0.07,36.86
4,-0.01,1.00,0.08,35.29
4,0.08,0.90,0.08,35.29
4,0.02,0.98,0.09,47.10
4,0.02,0.97,0.08,42.26
4,-0.09,1.09,0.08,42.46
4,-0.04,1.04,0.07,40.90
4,-0.04,0.92,0.06,37.29
4,0.08,0.92,0.06,38.64
4,0.06,0.94,0.08,38.64
4,0.06,1.08,0.09,37.80
4,-0.07,1.08,0.07,36.51
4,-0.07,1.07,0.07,36.51
4,0.05,0.94,0.07,43.28
4,0.05,0.94,0.08,45.35
4,0.07,0.93,0.08,45.36
4,-0.03,1.06,0.09,36.74
4,-0.03,1.08,0.08,41.28
4,-0.08,1.08,0.08,39.36
4,0.01,0.97,0.07,39.36
4,0.03,0.91,0.07,36.51
4,0.09,0.91,0.09,35.94
4,-0.01,1.02,0.09,35.94
4,-0.09,1.10,0.08,39.35
4,-0.09,1.10,0.08,41.22
4,-0.01,0.99,0.08,41.07
4,0.08,0.91,0.08,40.28
4,0.08,0.92,0.08,45.23
4,0.02,0.98,0.08,40.32
4,-0.09,1.09,0.09,40.32
4,-0.09,1.04,0.07,39.48
4,-0.04,1.04,0.08,39.77
4,0.08,0.92,0.08,39.77
4,0.12,0.95,0.08,41.66
4,0.06,0.95,0.09,44.68
4,-0.07,1.08,0.09,44.68
4,-0.06,1.06,0.08,42.92
4,-0.06,1.06,0.08,45.65
4,0.06,0.93,0.08,46.06
4,0.08,0.92,0.08,42.15
4,0.08,1.05,0.09,41.93
4,-0.05,1.05,0.09,39.35
4,-0.08,1.09,0.08,39.35
4,-0.11,0.96,0.07,40.25
4,0.02,0.96,0.08,36.19
4,0.08,0.91,0.08,36.19
4,-0.00,1.02,0.09,41.54
4,-0.00,1.03,0.09,39.15
4,-0.09,1.09,0.09,39.32
4,-0.01,1.00,0.07,37.75
4,-0.01,0.92,0.07,41.14
4,0.09,0.92,0.07,41.79
4,0.01,0.97,0.09,41.79
4,0.05,1.09,0.08,41.18
4,-0.07,1.09,0.08,38.04
4,-0.04,1.03,0.08,38.04
4,0.08,0.92,0.08,35.93
4,0.08,0.92,0.08,37.81
4,0.05,0.96,0.08,37.87
4,-0.07,1.08,0.09,40.22
4,-0.07,1.06,0.08,36.20
4,-0.06,1.06,0.08,43.86
4,0.05,0.94,0.08,43.86
4,0.01,0.93,0.08,40.34
4,0.07,0.93,0.09,35.17
4,-0.04,1.06,0.09,35.17
4,-0.08,1.08,0.08,42.01
4,-0.08,1.08,0.08,46.13
4,0.02,0.97,0.08,46.13
4,0.08,0.92,0.08,38.50
4,0.08,0.90,0.09,42.00
4,-0.02,1.02,0.09,39.29
4,-0.08,1.09,0.08,39.29
4,-0.08,1.00,0.09,39.42
4,-0.01,1.00,0.09,44.46
4,0.08,0.92,0.09,44.46
4,0.08,0.99,0.09,37.68
4,0.02,0.99,0.08,38.33
4,-0.07,1.10,0.08,38.33
4,-0.04,1.04,0.08,37.07
4,-0.04,1.05,0.08,38.46
4,0.07,0.93,0.08,38.93
4,0.04,0.96,0.08,38.14
4,0.04,1.08,0.08,38.03
4,-0.06,1.08,0.08,38.36
4,-0.06,1.06,0.07,38.36
4,-0.01,0.93,0.07,44.04
4,0.05,0.93,0.07,40.76
4,0.06,0.94,0.07,40.76
4,-0.04,1.05,0.10,45.12
4,-0.04,1.02,0.07,44.35
4,-0.06,1.08,0.07,44.20
4,0.03,0.96,0.07,41.85
4,0.03,0.92,0.08,45.69
4,0.08,0.92,0.08,40.08
4,-0.02,1.02,0.09,40.08
4,-0.03,1.09,0.08,43.31
4,-0.09,1.09,0.07,41.26
4,-0.00,1.01,0.07,41.26
4,0.08,0.92,0.07,40.95
4,0.08,0.92,0.09,38.62
4,0.01,0.99,0.09,38.74
4,-0.07,1.09,0.08,38.74
4,-0.07,1.09,0.08,42.52
4,-0.03,1.03,0.08,39.65
4,0.07,0.92,0.08,39.65
4,0.11,0.96,0.08,40.40
4,0.04,0.96,0.08,40.40
4,-0.06,1.08,0.08,40.40
4,-0.06,1.06,0.07,42.22
4,-0.06,1.06,0.08,42.45
4,0.05,0.94,0.08,42.45
4,0.05,0.93,0.08,38.81
4,0.05,0.93,0.09,40.33
4,-0.04,1.05,0.09,43.19
4,-0.07,1.07,0.07,43.19
4,-0.07,0.95,0.07,39.42
4,0.03,0.95,0.08,38.91
4,0.08,0.93,0.08,38.91
4,0.11,1.01,0.08,41.40
4,-0.01,1.01,0.08,46.64
4,-0.07,1.08,0.08,46.64
4,-0.01,1.00,0.07,39.65
4,-0.01,1.05,0.07,45.08
4,0.08,0.93,0.07,45.29
4,0.02,0.99,0.08,38.24
4,0.02,1.08,0.08,44.66
4,-0.08,1.08,0.08,45.67
4,-0.02,1.03,0.08,45.67
4,-0.06,0.92,0.08,38.97
4,0.07,0.92,0.08,44.27
4,0.04,0.96,0.08,44.27
4,-0.06,1.07,0.08,42.79
4,-0.06,1.07,0.07,43.95
4,-0.05,1.06,0.07,44.32
4,0.05,0.94,0.07,37.27
4,0.05,0.93,0.09,38.86
4,0.06,0.93,0.09,37.66
4,-0.05,1.05,0.08,37.66
4,-0.01,1.07,0.08,37.43
4,-0.07,1.07,0.07,43.05
4,0.03,0.97,0.07,43.05
4,0.07,0.92,0.07,40.86
4,0.07,0.92,0.09,40.68
4,-0.02,1.02,0.09,41.16
4,-0.07,1.09,0.08,35.67
4,-0.07,1.12,0.08,38.14
4,-0.00,0.99,0.08,36.99
4,0.08,0.93,0.08,36.99
4,0.08,0.99,0.09,44.33
4,0.02,0.99,0.09,39.40
4,-0.08,1.08,0.09,39.40
4,-0.02,1.01,0.08,43.06
4,-0.02,1.01,0.08,40.52
4,0.07,0.93,0.08,40.52
4,0.03,0.96,0.08,35.59
4,0.03,0.94,0.08,35.24
4,-0.07,1.07,0.08,35.77
4,-0.05,1.05,0.07,42.03
4,-0.05,0.94,0.07,36.20
4,0.05,0.94,0.09,41.35
4,0.06,0.94,0.09,41.35
4,0.01,1.05,0.09,43.31
4,-0.05,1.05,0.07,43.49
4,-0.07,1.07,0.07,43.49
4,0.02,0.97,0.08,41.10
4,0.02,0.98,0.08,42.76
4,0.08,0.92,0.08,42.48
4,-0.02,1.03,0.09,40.13
4,-0.02,1.08,0.09,44.34
4,-0.07,1.08,0.09,40.09
4,0.01,0.99,0.07,40.09
4,0.01,0.92,0.07,43.51
4,0.08,0.92,0.08,42.18
4,0.01,0.99,0.08,42.18
4,-0.07,1.09,0.08,39.84
4,-0.07,1.09,0.07,41.61
4,-0.02,1.02,0.07,42.15
4,0.06,0.93,0.07,36.66
4,0.06,0.97,0.08,39.75
4,0.05,0.97,0.08,38.65
4,-0.06,1.07,0.09,38.65
4,-0.05,1.05,0.08,37.80
4,-0.05,1.05,0.08,38.74
4,0.05,0.95,0.08,38.74
4,0.05,0.95,0.08,38.86
4,0.05,0.95,0.08,39.65
4,-0.04,1.05,0.08,39.29
4,-0.06,1.07,0.08,36.94
4,-0.06,1.09,0.07,36.24
4,0.04,0.96,0.07,38.09
4,0.07,0.93,0.08,38.09
4,0.07,1.02,0.08,40.96
4,-0.02,1.02,0.08,41.63
4,-0.07,1.08,0.08,41.63
4,-0.06,0.98,0.07,40.47
4,-0.00,0.98,0.07,43.95
4,0.07,0.93,0.07,43.95
4,0.01,0.99,0.09,40.19
4,0.01,0.95,0.08,38.64
4,-0.07,1.08,0.08,38.67
4,-0.02,1.02,0.08,37.10
4,-0.02,0.93,0.07,39.03
4,0.07,0.93,0.07,40.33
4,0.03,0.97,0.08,40.33
4,0.00,1.07,0.09,42.66
4,-0.06,1.07,0.07,39.79
4,-0.04,1.04,0.07,39.79
4,0.05,0.94,0.08,36.96
4,0.05,0.95,0.08,42.89
4,0.06,0.95,0.08,42.51
4,-0.05,1.06,0.09,36.24
4,-0.05,1.06,0.08,45.11
4,-0.06,1.06,0.08,39.05
4,0.03,0.96,0.08,39.05
4,0.00,0.94,0.08,41.32
4,0.07,0.94,0.09,40.74
4,-0.02,1.02,0.09,40.74
4,-0.08,1.07,0.09,38.30
4,-0.08,1.07,0.08,41.45
4,0.01,0.99,0.08,41.97
4,0.07,0.93,0.08,43.54
4,0.07,0.93,0.08,37.54
4,0.00,0.99,0.08,42.07
4,-0.07,1.08,0.07,42.07
4,-0.08,1.02,0.08,39.15
5,0.05,0.95,0.07,40.69
5,0.05,1.05,0.09,39.72
5,-0.05,1.05,0.09,44.43
5,-0.06,1.05,0.09,44.43
5,-0.03,0.96,0.08,40.47
5,0.04,0.96,0.07,40.00
5,0.07,0.93,0.07,40.00
5,-0.01,1.02,0.08,40.98
5,-0.01,1.02,0.08,41.06
5,-0.07,1.08,0.08,40.78
5,0.00,0.99,0.09,40.78
5,0.00,0.99,0.08,43.01
5,0.07,0.92,0.08,35.35
5,-0.00,1.00,0.08,35.35
5,-0.01,1.07,0.09,37.56
5,-0.07,1.07,0.08,40.30
5,-0.02,1.02,0.08,40.30
5,0.07,0.94,0.07,41.06
5,0.07,0.94,0.08,41.13
5,0.03,0.97,0.08,41.13
5,-0.06,1.06,0.08,41.24
5,-0.06,1.05,0.07,37.49
5,-0.05,1.05,0.07,40.59
5,0.05,0.95,0.07,40.59
5,0.05,0.95,0.08,40.79
5,0.05,0.95,0.09,38.47
5,-0.04,1.04,0.09,38.47
5,-0.06,1.06,0.08,41.71
5,-0.06,1.06,0.08,40.76
5,0.03,0.97,0.08,40.76
5,0.06,0.94,0.07,41.22
5,0.06,0.96,0.08,41.90
5,-0.02,1.02,0.08,41.87
5,-0.06,1.07,0.08,39.52
5,-0.06,0.99,0.07,38.10
5,0.01,0.99,0.07,41.63
5,0.06,0.94,0.08,41.63
5,0.12,1.01,0.07,41.36
5,-0.00,1.01,0.07,42.44
5,-0.07,1.07,0.07,42.44
5,-0.01,1.02,0.07,39.02
5,-0.01,1.00,0.07,39.31
5,0.06,0.94,0.07,39.34
5,0.02,0.97,0.08,36.21
5,0.02,1.06,0.08,39.82
5,-0.06,1.06,0.08,36.70
5,-0.04,1.03,0.08,36.70
5,-0.01,0.95,0.07,38.74
5,0.06,0.95,0.09,38.61
5,0.04,0.96,0.09,38.61
5,-0.05,1.05,0.08,37.63
5,-0.05,1.05,0.08,39.66
5,-0.05,1.05,0.08,39.35
5,0.03,0.97,0.07,37.00
5,0.03,0.94,0.08,41.17
5,0.06,0.94,0.08,44.57
5,-0.01,1.03,0.08,44.57
5,-0.00,1.07,0.08,38.90
5,-0.07,1.07,0.07,38.65
5,0.01,0.99,0.07,38.65
5,0.07,0.93,0.08,38.32
5,0.07,0.93,0.08,44.08
5,0.00,1.00,0.08,44.08
5,-0.07,1.07,0.08,41.72
5,-0.07,1.07,0.07,42.28
5,-0.02,1.01,0.07,42.66
5,0.06,0.94,0.08,38.74
5,0.06,0.98,0.09,35.89
5,0.02,0.98,0.08,42.31
5,-0.06,1.06,0.08,42.31
5,-0.04,1.04,0.08,42.71
5,-0.04,1.04,0.08,33.64
5,0.05,0.95,0.08,33.64
5,0.05,0.95,0.08,37.36
5,0.05,0.98,0.09,41.19
5,-0.05,1.05,0.09,41.39
5,-0.05,1.06,0.08,42.18
5,-0.05,0.97,0.08,44.43
5,0.03,0.97,0.08,41.86
5,0.05,0.94,0.08,41.86
5,0.04,1.02,0.09,39.96
5,-0.03,1.02,0.08,43.30
5,-0.06,1.06,0.08,43.30
5,0.01,0.99,0.06,43.65
5,0.01,0.94,0.08,39.44
5,0.06,0.94,0.08,39.17
5,-0.01,1.01,0.08,36.82
5,-0.01,1.07,0.08,39.62
5,-0.06,1.07,0.08,36.19
5,-0.02,1.01,0.08,36.19
5,-0.00,0.94,0.08,37.74
5,0.06,0.94,0.08,40.45
5,0.02,0.98,0.08,40.45
5,-0.06,1.06,0.08,42.18
5,-0.06,1.06,0.08,40.98
5,-0.04,1.04,0.08,41.11
5,0.04,0.95,0.09,40.33
5,0.04,0.95,0.08,40.49
5,0.05,0.95,0.08,41.77
5,-0.04,1.05,0.08,41.77
5,-0.04,1.05,0.08,43.79
5,-0.05,1.05,0.07,43.54
5,0.03,0.97,0.07,43.54
5,0.05,0.95,0.08,39.20
5,0.05,0.95,0.09,37.60
5,-0.02,1.02,0.09,37.60
5,-0.06,1.07,0.07,43.22
5,-0.06,1.10,0.08,38.24
5,0.01,0.98,0.08,38.12
5,0.05,0.93,0.08,45.95
5,0.05,1.00,0.09,38.69
5,-0.01,1.00,0.08,38.01
5,-0.07,1.07,0.08,38.01
5,-0.07,1.01,0.08,38.22
5,-0.01,1.01,0.08,39.92
5,0.06,0.94,0.08,39.92
5,0.02,0.98,0.08,40.89
5,0.02,1.00,0.08,43.90
5,-0.06,1.06,0.08,44.09
5,-0.04,1.03,0.08,37.82
5,-0.04,0.95,0.09,38.47
5,0.05,0.95,0.09,41.03
5,0.05,0.96,0.07,41.03
5,0.02,1.05,0.08,36.41
5,-0.04,1.05,0.08,38.46
5,-0.05,1.05,0.08,38.46
5,0.03,0.97,0.07,38.08
5,0.03,0.97,0.07,36.93
5,0.06,0.94,0.07,36.76
5,-0.02,1.04,0.09,40.67
5,-0.02,1.07,0.08,41.43
5,-0.07,1.07,0.08,43.80
5,0.02,0.98,0.08,43.80
5,0.06,0.94,0.08,38.68
5,0.06,0.94,0.08,35.44
5,0.00,1.01,0.08,35.44
5,-0.06,1.06,0.08,37.69
5,-0.06,1.06,0.07,40.34
5,-0.01,1.01,0.07,39.92
5,0.06,0.94,0.08,40.70
5,0.06,0.99,0.09,38.70
5,0.01,0.99,0.09,42.73
5,-0.05,1.06,0.08,42.73
5,-0.05,1.02,0.07,41.17
5,-0.03,1.02,0.08,36.22
5,0.06,0.95,0.08,36.22
5,0.03,0.97,0.08,42.06
5,0.03,0.97,0.08,34.76
5,-0.04,1.05,0.08,34.76
5,-0.05,1.04,0.07,40.47
5,-0.05,1.03,0.08,38.00
5,0.03,0.96,0.08,37.70
5,0.05,0.94,0.08,42.40
5,0.05,1.02,0.08,39.55
5,-0.03,1.02,0.08,40.08
5,-0.06,1.06,0.08,40.08
5,-0.04,0.99,0.08,44.23
5,0.02,0.99,0.08,39.76
5,0.06,0.94,0.08,39.76
5,-0.01,1.01,0.08,40.41
5,-0.01,1.00,0.08,44.18
5,-0.05,1.07,0.08,44.37
5,0.00,1.01,0.07,36.54
5,0.00,0.95,0.07,44.38
5,0.06,0.95,0.07,41.28
5,0.01,0.98,0.08,41.28
5,0.00,1.06,0.08,42.10
5,-0.06,1.06,0.08,36.55
5,-0.03,1.03,0.08,36.55
5,0.04,0.94,0.07,41.08
5,0.04,0.94,0.08,41.46
5,0.04,0.96,0.08,42.05
5,-0.04,1.05,0.09,42.83
5,-0.04,1.05,0.07,43.37
5,-0.04,1.05,0.07,44.91
5,0.04,0.97,0.08,44.91
5,0.05,0.95,0.09,43.18
5,0.05,0.95,0.09,45.08
5,-0.02,1.03,0.09,45.08
5,-0.05,1.06,0.08,40.73
5,-0.05,1.06,0.09,35.91
5,0.01,0.99,0.09,35.91
5,0.05,0.94,0.07,35.71
5,0.05,1.00,0.08,42.28
5,-0.01,1.00,0.08,42.19
5,-0.07,1.07,0.08,42.19
5,-0.07,1.00,0.08,37.97
5,0.00,1.00,0.07,41.67
5,0.05,0.95,0.07,41.67
5,0.01,0.99,0.08,44.55
5,0.01,0.99,0.08,42.84
5,-0.06,1.05,0.08,42.84
5,-0.03,1.02,0.07,38.47
5,-0.03,1.01,0.08,44.00
5,0.05,0.95,0.08,44.50
5,0.03,0.96,0.08,43.71
5,0.03,1.04,0.08,38.02
5,-0.04,1.04,0.08,42.92
5,-0.04,1.05,0.08,42.92
5,-0.03,0.97,0.08,43.69
5,0.04,0.97,0.08,40.25
5,0.05,0.96,0.08,40.25
5,-0.02,1.03,0.08,39.44
5,-0.02,1.05,0.07,39.06
5,-0.05,1.05,0.07,38.58
5,0.02,0.99,0.08,44.84
5,0.02,0.94,0.08,38.30
5,0.06,0.94,0.08,40.89
5,0.00,1.00,0.09,40.89
5,0.01,1.06,0.08,42.05
5,-0.06,1.06,0.08,50.53
5,0.01,1.01,0.08,50.53
5,0.06,0.95,0.08,39.34
5,0.06,0.95,0.10,39.26
5,0.02,0.99,0.10,39.85
5,-0.06,1.06,0.08,39.85
5,-0.06,1.03,0.07,40.26
5,-0.02,1.03,0.07,44.04
5,0.04,0.95,0.08,44.04
5,0.04,0.96,0.07,42.03
5,0.04,0.96,0.08,43.62
5,-0.04,1.04,0.08,43.62
5,-0.05,1.04,0.08,38.75
5,-0.05,1.04,0.08,43.72
5,0.04,0.96,0.08,43.72
5,0.04,0.96,0.08,35.34
5,0.04,0.97,0.09,39.68
5,-0.03,1.03,0.09,39.20
5,-0.05,1.06,0.08,38.42
5,-0.05,0.99,0.07,45.73
5,0.02,0.99,0.07,38.70
5,0.06,0.94,0.07,38.70
5,0.06,1.01,0.08,42.19
6,-0.02,1.02,0.08,38.24
6,-0.00,0.96,0.07,38.55
6,0.06,0.96,0.08,37.11
6,0.02,0.97,0.08,37.11
6,-0.05,1.04,0.08,39.08
6,-0.05,1.04,0.08,38.18
6,-0.04,1.04,0.08,38.20
6,0.03,0.97,0.07,42.12
6,0.03,0.96,0.08,36.60
6,0.04,0.96,0.08,38.10
6,-0.03,1.03,0.08,38.10
6,-0.04,1.05,0.08,41.77
6,-0.04,1.05,0.08,36.71
6,0.02,0.99,0.08,36.71
6,0.05,0.96,0.07,37.96
6,0.05,0.96,0.08,40.42
6,-0.01,1.01,0.08,40.42
6,-0.06,1.06,0.08,43.86
6,-0.06,1.05,0.08,44.32
6,0.00,0.99,0.08,44.14
6,0.05,0.94,0.08,44.14
6,0.05,0.99,0.08,41.41
6,0.01,0.99,0.09,41.66
6,-0.05,1.05,0.09,41.66
6,-0.02,1.02,0.07,39.00
6,-0.02,1.02,0.08,41.97
6,0.05,0.95,0.08,41.97
6,0.03,0.97,0.08,40.93
6,0.03,0.98,0.08,43.23
6,-0.04,1.04,0.08,43.07
6,-0.04,1.03,0.07,39.15
6,-0.04,0.98,0.07,38.61
6,0.04,0.98,0.07,39.19
6,0.04,0.96,0.08,39.19
6,0.03,1.03,0.09,39.77
6,-0.03,1.03,0.08,43.98
6,-0.06,1.05,0.08,43.98
6,0.02,0.98,0.08,42.37
6,0.02,0.96,0.08,39.53
6,0.05,0.96,0.08,39.13
6,-0.01,1.00,0.08,42.26
6,-0.01,1.06,0.08,43.12
6,-0.06,1.06,0.08,41.65
6,-0.00,1.00,0.09,41.65
6,-0.01,0.95,0.08,35.81
6,0.05,0.95,0.07,37.41
6,0.01,0.99,0.07,37.41
6,-0.05,1.05,0.08,40.63
6,-0.05,1.05,0.09,44.29
6,-0.02,1.01,0.09,44.39
6,0.04,0.96,0.09,42.83
6,0.04,0.98,0.09,38.21
6,0.03,0.98,0.09,35.73
6,-0.05,1.04,0.08,35.73
6,-0.05,1.03,0.08,42.01
6,-0.04,1.03,0.07,43.25
6,0.04,0.96,0.07,43.25
6,0.04,0.96,0.08,36.78
6,0.04,0.96,0.09,34.65
6,-0.03,1.03,0.09,34.65
6,-0.05,1.05,0.08,41.44
6,-0.05,1.04,0.07,41.74
6,0.02,0.98,0.07,42.02
6,0.05,0.95,0.08,42.02
6,0.05,1.01,0.08,37.60
6,-0.00,1.01,0.09,38.95
6,-0.06,1.05,0.09,38.95
6,-0.05,1.01,0.07,37.25
6,0.01,1.01,0.08,37.96
6,0.05,0.95,0.08,37.96
6,0.00,0.99,0.08,39.47
6,0.00,0.99,0.08,39.83
6,-0.05,1.05,0.08,39.59
6,-0.02,1.02,0.08,38.80
6,-0.02,0.95,0.08,39.30
6,0.05,0.95,0.08,46.98
6,0.02,0.97,0.08,46.98
6,0.02,1.04,0.09,43.46
6,-0.04,1.04,0.08,42.45
6,-0.04,1.03,0.08,42.45
6,0.03,0.96,0.08,43.04
6,0.03,0.96,0.07,40.09
6,0.04,0.96,0.07,40.27
6,-0.03,1.04,0.07,36.35
6,-0.03,1.05,0.08,37.56
6,-0.05,1.05,0.08,47.68
6,0.01,0.98,0.08,47.68
6,0.04,0.95,0.08,42.82
6,0.04,0.95,0.08,37.13
6,-0.01,1.01,0.08,37.13
6,-0.06,1.04,0.08,37.00
6,-0.06,1.04,0.08,37.47
6,-0.01,1.00,0.08,37.06
6,0.05,0.95,0.09,40.97
6,0.05,1.00,0.08,37.02
6,0.01,1.00,0.08,42.31
6,-0.05,1.05,0.07,42.31
6,-0.05,1.01,0.08,37.50
6,-0.01,1.01,0.08,40.84
6,0.05,0.96,0.08,40.84
6,0.02,0.98,0.08,39.82
6,0.02,0.98,0.08,36.87
6,-0.05,1.04,0.08,36.87
6,-0.03,1.04,0.08,34.91
6,-0.03,1.03,0.08,38.54
6,0.03,0.97,0.08,39.08
6,0.03,0.96,0.08,43.78
6,0.03,1.03,0.08,40.88
6,-0.03,1.03,0.08,39.36
6,-0.04,1.05,0.09,39.36
6,-0.05,0.98,0.08,43.40
6,0.01,0.98,0.07,41.22
6,0.04,0.96,0.07,41.22
6,-0.01,1.02,0.07,40.25
6,-0.01,1.05,0.08,38.58
6,-0.05,1.05,0.08,38.91
6,0.01,1.00,0.08,38.91
6,0.01,0.95,0.07,40.53
6,0.05,0.95,0.07,43.85
6,0.00,0.99,0.08,43.85
6,0.02,1.05,0.08,37.40
6,-0.05,1.05,0.08,36.73
6,-0.02,1.01,0.08,36.73
6,0.05,0.96,0.08,38.52
6,0.05,0.96,0.08,39.01
6,0.02,0.98,0.08,38.44
6,-0.05,1.04,0.09,35.31
6,-0.05,1.03,0.06,42.50
6,-0.02,1.03,0.06,39.54
6,0.03,0.97,0.06,39.54
6,0.04,0.96,0.08,40.02
6,0.04,0.96,0.08,38.72
6,-0.03,1.03,0.08,38.72
6,-0.03,1.04,0.08,38.28
6,-0.03,1.04,0.08,38.98
6,0.02,0.97,0.08,38.34
6,0.05,0.95,0.08,43.04
6,0.05,0.96,0.08,39.81
6,-0.01,1.02,0.08,42.13
6,-0.05,1.05,0.08,42.13
6,-0.05,0.99,0.08,42.71
6,0.00,0.99,0.08,44.48
6,0.05,0.96,0.08,44.48
6,0.01,0.99,0.08,36.98
6,0.01,0.99,0.08,41.16
6,-0.05,1.04,0.08,41.16
6,-0.02,1.02,0.08,41.99
6,-0.02,1.02,0.08,40.10
6,0.05,0.96,0.08,40.44
6,0.02,0.98,0.08,43.57
6,0.02,1.04,0.09,37.86
6,-0.04,1.04,0.09,39.50
6,-0.02,1.03,0.08,39.50
6,-0.03,0.98,0.08,42.53
6,0.03,0.98,0.07,42.20
6,0.03,0.96,0.07,42.20
6,-0.03,1.02,0.09,41.94
6,-0.03,1.04,0.08,39.27
6,-0.05,1.04,0.08,39.16
6,0.01,0.98,0.09,38.37
6,0.01,0.96,0.08,42.94
6,0.04,0.96,0.08,38.42
6,-0.02,1.01,0.07,38.42
6,-0.05,1.04,0.08,39.73
6,-0.05,1.04,0.08,41.59
6,-0.01,1.00,0.08,41.59
6,0.04,0.96,0.08,44.38
6,0.04,0.96,0.09,39.19
6,-0.00,1.00,0.09,39.69
6,-0.05,1.05,0.08,40.47
6,-0.05,1.01,0.08,36.88
6,-0.01,1.01,0.08,46.26
6,0.05,0.96,0.07,46.26
6,0.01,0.98,0.08,37.27
6,0.01,0.98,0.08,40.98
6,-0.04,1.05,0.08,40.98
6,-0.02,1.02,0.09,41.50
6,-0.02,1.02,0.09,42.61
6,0.03,0.97,0.09,42.61
6,0.04,0.97,0.07,42.77
6,0.04,0.97,0.08,40.86
6,-0.03,1.03,0.08,41.19
6,-0.05,1.04,0.07,41.19
6,-0.05,0.98,0.08,35.51
6,0.02,0.98,0.08,42.87
6,0.05,0.96,0.08,42.87
6,0.05,1.00,0.08,41.35
6,-0.02,1.00,0.07,37.82
6,-0.05,1.04,0.07,37.82
6,0.01,1.00,0.07,38.70
6,0.01,0.96,0.08,40.20
6,0.05,0.96,0.08,40.27
6,-0.00,0.99,0.08,41.05
6,-0.00,1.04,0.08,33.41
6,-0.05,1.04,0.08,38.97
6,-0.01,1.01,0.07,38.97
6,-0.01,0.96,0.07,39.52
6,0.05,0.96,0.09,37.47
6,0.02,0.99,0.09,37.47
6,-0.04,1.03,0.07,37.93
6,-0.04,1.02,0.07,35.54
6,-0.02,1.02,0.07,35.37
6,0.03,0.96,0.08,40.07
6,0.03,0.97,0.09,40.70
6,0.03,0.97,0.09,41.96
6,-0.03,1.03,0.08,41.96
6,-0.04,1.04,0.08,38.76
6,-0.04,1.04,0.08,38.10
6,0.02,0.98,0.08,38.10
6,0.05,0.96,0.08,36.01
6,0.05,0.96,0.08,42.27
6,-0.02,1.01,0.08,42.40
6,-0.05,1.05,0.08,43.18
6,-0.05,1.06,0.08,42.39
6,-0.00,1.00,0.08,34.06
6,0.04,0.96,0.07,34.06
6,0.06,0.99,0.10,41.22
6,-0.00,0.99,0.08,43.31
6,-0.04,1.04,0.08,43.31
6,-0.01,1.01,0.08,45.78
6,-0.01,1.01,0.08,34.71
6,0.03,0.95,0.08,34.71
6,0.02,0.99,0.07,40.59
6,0.02,0.97,0.08,45.43
6,-0.04,1.04,0.08,39.79
6,-0.02,1.03,0.07,39.79
6,-0.02,0.97,0.08,38.47
6,0.03,0.97,0.08,39.44
6,0.02,0.96,0.08,39.44
6,0.03,1.03,0.08,41.39
6,-0.03,1.03,0.08,40.75
6,-0.04,1.04,0.08,40.75
7,0.04,0.96,0.08,42.98
7,-0.01,1.00,0.08,42.98
7,-0.05,1.04,0.08,39.86
7,-0.05,1.01,0.07,40.84
7,-0.01,1.01,0.07,40.95
7,0.04,0.97,0.08,42.51
7,0.04,0.99,0.08,36.13
7,0.01,0.99,0.08,43.06
7,-0.04,1.04,0.08,43.06
7,-0.03,1.02,0.08,45.06
7,-0.03,1.02,0.08,36.76
7,0.03,0.98,0.08,36.76
7,0.02,0.97,0.08,38.78
7,0.02,0.97,0.09,40.41
7,-0.04,1.03,0.09,40.34
7,-0.03,1.03,0.07,38.78
7,-0.03,0.98,0.08,38.93
7,0.02,0.98,0.08,40.23
7,0.03,0.97,0.08,40.23
7,0.05,1.02,0.08,44.54
7,-0.01,1.02,0.08,38.17
7,-0.05,1.04,0.08,38.17
7,0.01,0.99,0.08,41.54
7,0.01,0.99,0.07,42.71
7,0.04,0.96,0.07,42.99
7,-0.01,1.00,0.07,39.07
7,-0.01,1.03,0.08,44.70
7,-0.05,1.03,0.08,41.04
7,-0.01,1.01,0.07,41.04
7,-0.01,0.96,0.08,38.09
7,0.04,0.96,0.09,42.12
7,0.01,0.98,0.09,42.12
7,0.03,1.03,0.07,41.14
7,-0.03,1.03,0.08,38.26
7,-0.02,1.02,0.08,38.26
7,0.03,0.97,0.08,45.17
7,0.03,0.96,0.09,38.48
7,0.03,0.96,0.09,38.42
7,-0.03,1.03,0.09,36.07
7,-0.03,1.04,0.08,45.14
7,-0.04,1.04,0.08,36.39
7,0.02,0.98,0.08,36.39
7,0.04,0.97,0.08,38.86
7,0.04,0.97,0.08,41.97
7,-0.01,1.01,0.08,41.97
7,-0.04,1.04,0.08,39.95
7,-0.04,1.05,0.08,39.65
7,0.01,0.99,0.08,39.62
7,0.04,0.96,0.07,43.54
7,0.04,0.99,0.09,39.66
7,-0.01,0.99,0.09,43.28
7,-0.05,1.04,0.09,43.28
7,-0.01,1.01,0.08,41.09
7,-0.01,1.01,0.08,40.31
7,0.05,0.97,0.08,40.31
7,0.01,0.99,0.07,42.60
7,0.01,0.99,0.09,38.33
7,-0.04,1.04,0.09,38.50
7,-0.02,1.02,0.09,40.07
7,-0.02,1.03,0.07,39.28
7,0.03,0.97,0.07,47.03
7,0.03,0.98,0.08,47.03
7,0.03,1.03,0.08,42.81
7,-0.03,1.03,0.08,35.71
7,-0.03,1.03,0.08,35.71
7,0.01,0.99,0.07,37.42
7,0.01,0.99,0.08,45.60
7,0.04,0.97,0.08,45.60
7,-0.03,1.01,0.07,40.03
7,-0.03,1.04,0.07,41.86
7,-0.05,1.04,0.07,44.45
7,-0.00,0.99,0.08,44.45
7,-0.00,0.97,0.08,41.11
7,0.04,0.97,0.08,43.43
7,-0.01,1.00,0.08,43.43
7,-0.05,1.04,0.08,39.58
7,-0.05,1.04,0.08,37.39
7,-0.01,1.01,0.08,37.39
7,0.04,0.96,0.08,42.85
7,0.04,0.99,0.08,45.96
7,0.01,0.99,0.08,45.46
7,-0.03,1.04,0.08,42.33
7,-0.03,1.03,0.08,41.88
7,-0.02,1.03,0.08,37.26
7,0.04,0.97,0.08,37.26
7,0.02,0.97,0.06,39.11
7,0.02,0.97,0.02,38.86
7,-0.03,1.03,0.08,38.86
7,-0.04,1.03,0.07,41.24
7,-0.04,1.04,0.08,40.41
7,0.03,0.97,0.08,40.57
7,0.03,0.97,0.08,43.71
7,0.03,1.01,0.08,40.30
7,-0.02,1.01,0.08,41.67
7,-0.05,1.04,0.08,41.67
7,-0.05,1.00,0.07,40.72
7,0.01,1.00,0.08,43.90
7,0.04,0.96,0.08,43.90
7,-0.01,1.00,0.08,39.73
7,-0.01,1.00,0.08,43.68
7,-0.05,1.04,0.08,43.13
7,0.00,1.01,0.07,39.22
7,0.00,1.03,0.07,42.51
7,0.04,0.97,0.07,40.23
7,0.01,0.99,0.08,40.23
7,0.01,1.03,0.08,43.18
7,-0.04,1.03,0.08,39.12
7,-0.02,1.02,0.08,39.12
7,0.03,0.97,0.08,40.75
7,0.03,0.97,0.08,37.82
7,0.02,0.97,0.08,37.82
7,-0.04,1.03,0.09,37.34
7,-0.04,1.02,0.07,37.82
7,-0.03,1.02,0.07,37.96
7,0.03,0.98,0.08,40.31
7,0.03,0.97,0.09,46.04
7,0.03,0.97,0.08,41.00
7,-0.02,1.02,0.08,41.00
7,-0.04,1.04,0.07,40.20
7,-0.04,1.04,0.08,43.64
7,0.01,0.99,0.08,43.64
7,0.04,0.96,0.08,39.37
7,0.04,0.94,0.08,36.87
7,-0.02,1.00,0.08,37.14
7,-0.04,1.05,0.08,41.84
7,-0.04,1.00,0.08,39.94
7,-0.00,1.00,0.08,37.66
7,0.04,0.97,0.08,37.66
7,0.01,0.99,0.07,41.19
7,0.01,0.99,0.08,42.97
7,-0.04,1.03,0.08,42.97
7,-0.02,1.02,0.07,40.12
7,-0.02,1.02,0.08,41.59
7,0.02,0.97,0.08,41.53
7,0.02,0.98,0.08,37.62
7,0.02,1.03,0.07,40.02
7,-0.03,1.03,0.07,36.71
7,-0.03,1.03,0.09,36.71
7,-0.03,0.98,0.08,43.79
7,0.03,0.98,0.08,40.35
7,0.03,0.96,0.08,40.35
7,-0.02,1.02,0.08,43.33
7,-0.02,1.02,0.08,43.28
7,-0.04,1.03,0.08,43.17
7,0.02,0.99,0.08,46.31
7,0.02,0.97,0.08,37.13
7,0.03,0.97,0.08,35.64
7,-0.01,1.01,0.07,35.64
7,-0.01,1.04,0.08,38.35
7,-0.04,1.04,0.07,37.16
7,-0.01,1.00,0.07,37.16
7,0.03,0.96,0.08,40.49
7,0.03,0.96,0.08,43.69
7,0.02,0.99,0.08,43.69
7,-0.04,1.04,0.08,39.04
7,-0.04,1.02,0.07,40.84
7,-0.01,1.02,0.07,41.31
7,0.03,0.97,0.07,42.10
7,0.03,0.98,0.08,39.62
7,0.02,0.98,0.08,36.66
7,-0.03,1.02,0.08,36.66
7,-0.04,1.02,0.08,38.50
7,-0.04,1.02,0.07,45.98
7,0.02,0.99,0.07,45.98
7,0.03,0.97,0.08,45.06
7,0.03,0.96,0.08,37.40
7,-0.02,1.03,0.08,37.35
7,-0.04,1.03,0.08,38.13
7,-0.04,0.99,0.08,35.22
7,0.01,0.99,0.08,40.58
7,0.04,0.97,0.08,40.58
7,0.05,0.99,0.08,39.83
7,-0.01,0.99,0.08,38.92
7,-0.04,1.04,0.08,38.92
7,0.00,1.00,0.08,36.47
7,0.00,1.00,0.08,40.04
7,0.04,0.97,0.08,40.58
7,0.00,0.99,0.08,41.37
7,0.00,1.04,0.08,39.65
7,-0.04,1.04,0.08,42.93
7,-0.02,1.02,0.08,42.93
7,-0.04,0.98,0.08,38.26
7,0.02,0.98,0.08,41.53
7,0.02,0.98,0.08,41.53
7,-0.03,1.03,0.08,47.30
7,-0.03,1.03,0.08,38.78
7,-0.03,1.02,0.08,38.39
7,0.02,0.98,0.08,40.74
7,0.02,0.97,0.07,37.94
7,0.02,0.97,0.07,33.70
7,-0.02,1.01,0.08,33.70
7,-0.02,1.03,0.08,36.44
7,-0.03,1.03,0.09,37.20
7,0.01,0.99,0.09,37.20
7,0.03,0.96,0.08,33.32
7,0.03,0.96,0.08,38.85
7,-0.01,1.00,0.08,38.85
7,-0.03,1.03,0.08,33.70
7,-0.03,1.06,0.09,42.30
7,0.00,1.00,0.09,42.85
7,0.04,0.97,0.08,39.72
7,0.04,0.99,0.07,40.49
7,-0.01,0.99,0.07,39.50
7,-0.04,1.03,0.08,39.50
7,-0.02,1.02,0.07,43.59
7,-0.02,1.02,0.08,35.82
7,0.04,0.96,0.08,35.82
7,0.02,0.98,0.08,38.97
7,0.02,0.97,0.08,40.48
7,-0.02,1.03,0.08,40.08
7,-0.03,1.03,0.07,41.65
7,-0.03,0.98,0.08,40.75
7,0.02,0.98,0.08,46.56
7,0.03,0.98,0.08,46.56
7,0.04,1.02,0.07,39.19
7,-0.02,1.02,0.07,37.13
7,-0.03,1.03,0.07,37.13
7,0.01,1.00,0.08,43.83
7,0.01,1.00,0.08,40.80
7,0.04,0.97,0.08,40.97
7,-0.01,1.00,0.09,40.18
7,-0.01,1.03,0.08,42.61
7,-0.04,1.03,0.08,42.36
7,0.00,1.00,0.09,42.36
7,0.03,0.97,0.08,38.45
7,0.03,0.97,0.07,44.25
7,-0.00,0.99,0.07,44.25
7,-0.04,1.03,0.08,40.60
7,-0.04,1.03,0.08,39.67
7,-0.01,1.02,0.08,39.67
7,0.03,0.97,0.08,42.20
7,0.03,0.98,0.08,38.77
8,-0.02,1.03,0.08,40.99
8,-0.02,1.05,0.08,42.07
8,0.01,0.99,0.08,41.45
8,0.03,0.97,0.08,43.02
8,0.03,1.01,0.08,42.64
8,-0.01,1.01,0.08,37.52
8,-0.03,1.03,0.08,37.52
8,-0.00,1.00,0.08,39.93
8,-0.00,1.00,0.08,39.20
8,0.03,0.97,0.08,39.20
8,0.01,1.00,0.08,40.32
8,0.01,1.03,0.08,39.26
8,-0.04,1.03,0.08,39.31
8,-0.02,1.00,0.08,37.74
8,-0.02,0.97,0.09,40.49
8,0.03,0.97,0.09,41.81
8,0.01,0.98,0.08,41.81
8,0.04,1.02,0.09,47.16
8,-0.03,1.02,0.08,39.99
8,-0.03,1.02,0.08,39.99
8,0.03,0.98,0.08,45.23
8,0.03,0.98,0.07,39.39
8,0.02,0.98,0.07,39.26
8,-0.02,1.01,0.07,44.75
8,-0.02,1.03,0.08,41.46
8,-0.04,1.03,0.08,41.69
8,0.01,0.98,0.07,41.69
8,0.03,0.97,0.08,39.18
8,0.03,0.97,0.08,42.83
8,-0.01,1.01,0.08,42.83
8,-0.03,1.04,0.08,37.47
8,-0.03,1.04,0.07,35.98
8,-0.00,1.00,0.07,36.09
8,0.03,0.97,0.08,43.14
8,0.03,0.99,0.08,40.04
8,-0.00,0.99,0.08,42.84
8,-0.04,1.03,0.08,42.84
8,-0.04,1.01,0.08,44.53
8,-0.01,1.01,0.08,44.10
8,0.03,0.97,0.08,44.10
8,0.01,0.98,0.08,40.14
8,0.01,0.98,0.08,40.71
8,-0.03,1.02,0.08,40.71
8,-0.01,1.03,0.08,41.59
8,-0.01,1.05,0.08,45.02
8,0.02,0.98,0.08,45.30
8,0.03,0.97,0.07,40.60
8,0.03,1.02,0.08,36.71
8,-0.01,1.02,0.08,39.22
8,-0.02,1.02,0.07,39.22
8,-0.05,0.98,0.08,39.60
8,0.01,0.98,0.08,40.40
8,0.03,0.97,0.08,40.40
8,-0.00,1.00,0.08,38.11
8,-0.00,1.03,0.08,42.03
8,-0.03,1.03,0.08,41.92
8,0.00,0.99,0.09,40.36
8,0.00,0.97,0.08,44.31
8,0.04,0.97,0.08,39.27
8,-0.00,0.99,0.08,39.27
8,-0.03,1.03,0.08,37.60
8,-0.03,1.03,0.08,44.82
8,-0.01,1.02,0.08,44.82
8,0.03,0.98,0.08,40.28
8,0.03,0.98,0.08,40.44
8,0.01,0.98,0.08,40.03
8,-0.03,1.02,0.09,40.03
8,-0.03,1.02,0.08,39.53
8,-0.02,1.02,0.08,43.29
8,0.03,0.98,0.07,43.29
8,0.03,0.98,0.07,38.97
8,0.03,0.98,0.08,37.01
8,-0.03,1.01,0.08,37.01
8,-0.02,1.02,0.08,43.58
8,-0.02,1.02,0.09,37.60
8,0.01,1.00,0.09,37.60
8,0.03,0.97,0.08,44.98
8,0.03,0.95,0.07,42.46
8,-0.01,1.01,0.07,42.21
8,-0.03,1.02,0.08,42.21
8,-0.03,1.00,0.09,40.13
8,0.00,1.00,0.09,41.47
8,0.03,0.97,0.09,41.47
8,0.06,1.00,0.09,41.02
8,-0.00,1.00,0.07,41.38
8,-0.03,1.02,0.07,41.38
8,-0.01,1.01,0.08,37.50
8,-0.01,1.04,0.08,37.33
8,0.03,0.98,0.08,37.50
8,0.00,0.98,0.08,36.72
8,0.00,1.02,0.09,38.47
8,-0.03,1.02,0.09,38.45
8,-0.02,1.01,0.07,38.45
8,-0.04,0.98,0.08,39.61
8,0.02,0.98,0.08,42.71
8,0.02,0.99,0.08,42.71
8,-0.02,1.01,0.07,39.89
8,-0.02,1.02,0.08,41.73
8,-0.02,1.02,0.08,41.56
8,0.01,0.99,0.08,44.69
8,0.01,0.98,0.09,38.83
8,0.03,0.98,0.09,39.71
8,-0.01,1.01,0.07,39.71
8,-0.04,1.03,0.08,37.66
8,-0.04,1.03,0.07,37.97
8,0.00,1.00,0.07,37.97
8,0.04,0.98,0.07,38.30
8,0.04,0.98,0.08,39.80
8,0.01,1.00,0.08,39.71
8,-0.03,1.03,0.08,40.49
8,-0.03,1.02,0.08,42.60
8,-0.01,1.02,0.08,38.91
8,0.03,0.98,0.08,38.91
8,0.01,0.99,0.08,42.69
8,0.01,0.99,0.08,35.43
8,-0.02,1.02,0.08,35.43
8,-0.02,1.01,0.08,38.71
8,-0.02,1.01,0.09,36.69
8,0.02,0.98,0.09,36.69
8,0.01,0.98,0.08,43.44
8,0.01,0.96,0.08,43.78
8,-0.03,1.02,0.08,43.11
8,-0.03,1.02,0.08,40.76
8,-0.03,0.99,0.08,38.50
8,0.02,0.99,0.08,45.98
8,0.04,0.98,0.08,45.98
8,0.05,1.01,0.08,39.82
8,-0.01,1.01,0.08,37.82
8,-0.03,1.02,0.08,37.82
8,0.00,1.00,0.08,39.36
8,0.00,0.97,0.08,37.66
8,0.04,0.97,0.08,38.04
8,0.01,1.00,0.08,40.39
8,0.01,1.03,0.08,43.21
8,-0.03,1.03,0.08,41.93
8,-0.02,1.00,0.07,41.93
8,-0.04,0.98,0.08,38.56
8,0.03,0.98,0.08,42.40
8,0.01,0.99,0.08,42.40
8,-0.02,1.03,0.09,37.55
8,-0.02,1.02,0.08,44.72
8,-0.02,1.02,0.08,44.77
8,0.02,0.99,0.08,40.07
8,0.02,0.98,0.08,42.11
8,0.03,0.98,0.08,40.94
8,-0.02,1.02,0.08,40.94
8,-0.03,1.03,0.09,39.51
8,-0.03,1.03,0.08,43.16
8,0.02,0.99,0.08,43.16
8,0.03,0.97,0.08,36.61
8,0.03,0.97,0.08,37.94
8,-0.02,1.01,0.08,37.98
8,-0.03,1.03,0.08,37.98
8,-0.03,1.00,0.08,39.45
8,0.00,1.00,0.08,36.28
8,0.04,0.97,0.08,36.28
8,0.04,1.00,0.08,42.63
8,0.00,1.00,0.07,39.21
8,-0.04,1.03,0.07,39.21
8,-0.01,1.00,0.08,38.26
8,-0.01,1.00,0.08,42.09
8,0.03,0.97,0.08,42.09
8,0.00,0.99,0.08,42.02
8,0.00,0.96,0.08,45.58
8,-0.02,1.02,0.08,45.53
8,-0.01,1.01,0.08,40.83
8,-0.01,0.98,0.07,41.49
8,0.03,0.98,0.08,40.37
8,0.03,0.99,0.08,40.37
8,0.04,1.02,0.08,41.82
8,-0.02,1.02,0.08,42.40
8,-0.03,1.03,0.08,42.40
8,0.01,1.00,0.08,38.32
8,0.01,0.98,0.08,37.74
8,0.02,0.98,0.08,38.26
8,-0.01,1.01,0.07,38.26
8,-0.01,1.03,0.08,36.59
8,-0.03,1.03,0.08,36.98
8,0.00,1.01,0.08,36.98
8,0.03,0.97,0.08,45.47
8,0.03,0.97,0.08,45.85
8,0.00,1.01,0.08,45.85
8,-0.03,1.03,0.08,41.61
8,-0.03,1.03,0.08,41.76
8,-0.01,1.00,0.08,42.11
8,0.02,0.98,0.08,40.55
8,0.02,0.99,0.08,36.23
8,0.01,0.99,0.08,39.49
8,-0.03,1.02,0.08,39.49
8,-0.01,1.02,0.08,41.83
8,-0.01,1.02,0.08,37.55
8,0.02,0.98,0.08,37.55
8,0.02,0.99,0.08,39.60
8,0.02,0.99,0.08,41.17
8,-0.02,1.02,0.08,40.86
8,-0.03,1.01,0.08,39.29
8,-0.03,1.05,0.07,40.50
8,0.01,0.98,0.07,39.58
8,0.01,0.98,0.08,39.58
8,0.01,1.01,0.08,42.77
8,-0.01,1.01,0.07,39.74
8,-0.03,1.03,0.07,39.74
8,-0.06,0.99,0.08,41.98
8,0.00,0.99,0.07,41.06
8,0.03,0.97,0.07,41.06
8,-0.01,1.00,0.08,36.24
8,-0.01,1.03,0.08,38.18
8,-0.03,1.03,0.08,38.10
8,-0.00,1.01,0.08,41.24
8,-0.00,0.98,0.08,37.78
8,0.03,0.98,0.08,38.45
8,0.01,0.99,0.06,38.45
8,0.03,1.03,0.08,40.00
8,-0.03,1.03,0.08,40.77
8,-0.02,1.01,0.08,40.77
8,0.02,0.98,0.08,39.67
8,0.02,1.00,0.08,44.16
8,0.02,1.00,0.08,44.05
8,-0.02,1.02,0.08,37.78
8,-0.02,1.02,0.08,36.43
8,-0.02,1.02,0.08,43.61
8,0.02,1.00,0.08,43.61
8,0.02,0.98,0.08,41.38
8,0.02,0.98,0.08,39.54
8,-0.01,1.02,0.08,39.54
8,-0.02,1.02,0.08,42.37
8,-0.02,1.02,0.09,41.54
8,-0.00,0.99,0.09,41.84
8,0.03,0.98,0.08,37.93
8,0.03,1.00,0.08,39.89
8,-0.00,1.00,0.08,39.13
8,-0.03,1.03,0.07,39.13
9,0.02,0.98,0.09,40.22
9,0.01,0.99,0.08,40.22
9,0.01,1.01,0.08,40.67
9,-0.02,1.01,0.08,41.45
9,-0.02,1.02,0.08,41.45
9,0.01,0.98,0.07,39.17
9,0.01,0.98,0.08,37.74
9,0.04,0.98,0.08,37.74
9,-0.01,1.01,0.08,41.45
9,-0.01,1.03,0.08,44.83
9,-0.03,1.03,0.08,45.10
9,0.01,0.99,0.08,39.62
9,0.01,0.98,0.08,41.26
9,0.03,0.98,0.08,39.76
9,-0.00,1.00,0.08,39.76
9,-0.03,1.03,0.08,40.10
9,-0.03,1.03,0.08,39.81
9,-0.00,1.00,0.08,39.81
9,0.02,0.98,0.09,43.38
9,0.02,1.00,0.08,38.42
9,0.00,1.00,0.08,38.99
9,-0.02,1.03,0.07,41.34
9,-0.02,1.02,0.08,38.11
9,-0.02,1.02,0.08,39.99
9,0.03,0.98,0.08,39.99
9,0.01,0.99,0.08,38.74
9,0.01,0.99,0.08,41.14
9,-0.02,1.02,0.08,41.14
9,-0.02,1.02,0.08,40.21
9,-0.02,1.02,0.08,40.20
9,0.01,0.99,0.08,40.18
9,0.02,0.98,0.08,38.61
9,0.02,1.01,0.08,40.75
9,-0.01,1.01,0.08,37.53
9,-0.03,1.02,0.08,37.53
9,-0.05,0.99,0.07,43.98
9,0.01,0.99,0.08,42.30
9,0.03,0.97,0.08,42.30
9,-0.00,1.00,0.08,37.89
9,-0.00,1.00,0.07,42.35
9,-0.03,1.03,0.07,42.42
9,-0.01,1.01,0.08,41.64
9,-0.01,1.04,0.08,37.10
9,0.02,0.98,0.08,40.84
9,0.01,1.00,0.08,40.84
9,0.01,1.03,0.08,38.60
9,-0.02,1.03,0.08,41.43
9,-0.01,1.01,0.08,41.43
9,-0.04,0.99,0.08,43.19
9,0.02,0.99,0.08,39.31
9,0.01,0.99,0.08,39.31
9,-0.02,1.02,0.08,39.98
9,-0.02,1.02,0.07,40.54
9,-0.01,1.02,0.07,40.58
9,0.01,0.98,0.08,46.07
9,0.01,0.99,0.08,35.86
9,0.02,0.99,0.08,41.63
9,-0.02,1.01,0.08,41.63
9,-0.02,1.03,0.08,41.80
9,-0.02,1.03,0.08,43.45
9,0.00,0.99,0.08,43.45
9,0.02,0.98,0.08,37.03
9,0.02,0.94,0.08,39.37
9,-0.00,1.00,0.08,39.46
9,-0.03,1.02,0.07,41.81
9,-0.03,1.01,0.07,37.88
9,0.00,1.01,0.07,40.62
9,0.02,0.98,0.08,40.62
9,0.01,0.99,0.08,40.15
9,0.01,0.99,0.08,41.26
9,-0.03,1.02,0.08,41.26
9,-0.02,1.01,0.09,41.46
9,-0.02,1.01,0.08,39.98
9,0.02,0.98,0.08,40.49
9,0.01,0.99,0.08,42.06
9,0.01,0.96,0.08,38.21
9,-0.02,1.02,0.08,39.53
9,-0.02,1.03,0.07,39.53
9,-0.06,0.99,0.08,36.95
9,0.00,0.99,0.09,34.72
9,0.01,0.98,0.09,34.72
9,-0.01,1.00,0.08,35.72
9,-0.01,1.00,0.07,38.07
9,-0.02,1.02,0.07,38.07
9,0.01,1.00,0.08,39.31
9,0.01,1.05,0.08,37.30
9,0.03,0.99,0.08,42.46
9,-0.02,1.00,0.08,42.46
9,-0.02,1.03,0.08,39.35
9,-0.03,1.03,0.08,41.21
9,-0.01,1.01,0.08,41.21
9,-0.04,0.99,0.08,44.80
9,0.02,0.99,0.08,37.44
9,0.00,1.00,0.08,37.44
9,-0.02,1.02,0.09,41.31
9,-0.02,1.00,0.08,40.43
9,-0.02,1.00,0.08,39.99
9,0.01,0.98,0.08,43.12
9,0.01,0.99,0.08,42.05
9,0.02,0.99,0.08,45.91
9,-0.02,1.03,0.08,45.91
9,-0.02,1.02,0.09,40.86
9,-0.02,1.02,0.08,38.94
9,0.01,0.99,0.08,38.94
9,0.02,0.98,0.08,40.61
9,0.02,0.95,0.07,39.45
9,-0.02,1.01,0.07,39.22
9,-0.02,1.02,0.08,41.57
9,-0.02,0.99,0.08,37.40
9,0.00,0.99,0.08,40.90
9,0.02,0.98,0.08,40.90
9,0.05,1.00,0.08,40.33
9,-0.01,1.00,0.08,43.55
9,-0.02,1.02,0.08,43.55
9,0.00,1.00,0.08,39.17
9,0.00,1.00,0.08,37.67
9,0.02,0.97,0.08,38.07
9,0.01,1.00,0.08,39.63
9,0.01,0.96,0.07,40.17
9,-0.02,1.02,0.07,46.53
9,-0.01,1.01,0.07,46.53
9,-0.03,0.99,0.08,40.76
9,0.03,0.99,0.08,41.40
9,0.01,0.99,0.08,41.40
9,-0.02,1.01,0.08,42.54
9,-0.02,1.01,0.09,39.60
9,-0.02,1.02,0.09,39.60
9,0.02,0.98,0.09,40.30
9,0.02,0.98,0.08,40.29
9,0.02,0.98,0.08,40.07
9,-0.01,1.01,0.07,39.29
9,-0.01,1.02,0.08,34.95
9,-0.02,1.02,0.08,40.10
9,0.01,0.99,0.08,40.10
9,0.02,0.99,0.08,41.85
9,0.02,0.99,0.09,39.32
9,0.00,1.01,0.09,39.32
9,-0.03,1.02,0.08,43.86
9,-0.03,1.06,0.07,41.13
9,0.00,0.99,0.07,40.90
9,0.03,0.98,0.08,36.99
9,0.03,0.99,0.09,41.16
9,-0.00,0.99,0.09,36.51
9,-0.02,1.02,0.09,36.51
9,-0.01,1.02,0.08,38.49
9,-0.01,1.02,0.08,42.00
9,0.02,0.99,0.08,42.00
9,0.01,0.98,0.07,41.08
9,0.01,0.95,0.08,41.04
9,-0.02,1.02,0.08,41.26
9,-0.03,1.01,0.08,38.13
9,-0.03,0.99,0.08,37.66
9,0.02,0.99,0.08,37.66
9,0.01,0.99,0.09,37.66
9,0.05,1.01,0.08,40.84
9,-0.01,1.01,0.07,37.53
9,-0.02,1.02,0.07,37.53
9,0.01,0.99,0.08,36.68
9,0.01,0.99,0.08,40.29
9,0.01,0.99,0.08,39.94
9,-0.01,1.01,0.09,39.94
9,-0.01,1.02,0.08,41.59
9,-0.03,1.02,0.08,39.63
9,-0.00,0.99,0.08,39.63
9,-0.00,0.98,0.08,40.04
9,0.02,0.98,0.08,45.56
9,-0.00,1.00,0.08,45.56
9,-0.03,1.01,0.07,37.40
9,-0.03,1.01,0.08,36.64
9,-0.01,1.00,0.08,36.64
9,0.01,0.98,0.08,38.63
9,0.01,0.99,0.08,38.87
9,0.01,0.99,0.08,38.77
9,-0.02,1.02,0.07,40.34
9,-0.02,1.01,0.08,42.30
9,-0.02,1.01,0.09,37.71
9,0.02,0.99,0.09,37.71
9,0.02,0.99,0.07,43.35
9,0.02,0.99,0.07,35.89
9,-0.01,1.01,0.07,35.89
9,-0.03,1.02,0.09,39.74
9,-0.03,1.06,0.08,41.70
9,0.01,0.99,0.08,41.98
9,0.03,0.98,0.08,38.06
9,0.03,1.01,0.08,42.05
9,-0.00,1.01,0.08,37.48
9,-0.02,1.03,0.07,37.48
9,-0.06,1.01,0.08,42.05
9,0.00,1.01,0.09,39.69
9,0.02,0.98,0.09,39.69
9,0.00,0.99,0.08,41.77
9,0.00,0.99,0.08,37.43
9,-0.03,1.02,0.08,37.37
9,-0.01,1.01,0.08,43.64
9,-0.01,0.98,0.09,41.75
9,0.01,0.98,0.09,39.03
9,0.02,1.00,0.09,39.03
9,0.05,1.01,0.08,42.56
9,-0.01,1.01,0.08,41.70
9,-0.02,1.02,0.08,41.70
9,0.02,0.99,0.08,41.50
9,0.02,0.99,0.08,41.60
9,0.01,0.98,0.08,42.09
9,-0.01,1.01,0.08,41.31
9,-0.01,1.01,0.08,41.72
9,-0.01,1.01,0.08,38.45
9,0.00,0.99,0.08,38.45
9,0.00,0.99,0.07,37.32
9,0.02,0.99,0.08,43.95
9,-0.00,1.01,0.08,43.95
9,-0.03,1.03,0.07,40.56
9,-0.03,1.03,0.08,36.11
9,-0.00,0.99,0.08,36.11
9,0.02,0.98,0.09,41.10
9,0.02,0.94,0.08,40.02
9,0.01,1.00,0.08,40.36
9,-0.02,1.02,0.09,40.36
9,-0.02,1.01,0.08,40.52
9,-0.01,1.01,0.08,44.54
9,0.02,0.99,0.08,44.54
9,0.01,0.99,0.08,40.17
9,0.01,0.99,0.08,45.75
9,-0.02,1.02,0.08,45.75
9,-0.01,1.01,0.08,44.34
9,-0.01,1.05,0.08,37.31
9,0.01,0.99,0.08,36.86
9,0.02,0.98,0.07,46.26
9,0.02,1.01,0.08,45.83
9,-0.01,1.01,0.08,39.26
9,-0.02,1.02,0.08,39.26
9,-0.05,0.99,0.07,42.41
9,0.01,0.99,0.08,37.67
10,0.04,1.02,0.08,37.65
10,-0.01,1.01,0.07,43.60
10,-0.01,1.01,0.08,43.60
10,-0.05,0.99,0.09,40.72
10,0.01,0.99,0.08,43.02
10,0.01,0.98,0.08,43.02
10,-0.00,1.00,0.07,38.94
10,-0.00,1.00,0.08,40.92
10,-0.02,1.02,0.08,41.21
10,0.00,1.00,0.08,36.51
10,0.00,1.04,0.07,40.28
10,0.02,0.98,0.07,40.97
10,-0.00,1.00,0.08,40.97
10,-0.00,1.01,0.08,44.01
10,-0.02,1.01,0.08,44.49
10,-0.01,1.01,0.08,44.49
10,-0.04,0.98,0.08,39.26
10,0.02,0.98,0.08,36.37
10,0.00,0.99,0.08,36.37
10,-0.02,1.01,0.08,38.04
10,-0.02,1.01,0.08,42.91
10,-0.01,1.01,0.08,42.48
10,0.01,0.98,0.08,37.00
10,0.01,0.99,0.08,38.25
10,0.00,0.99,0.08,39.52
10,-0.02,1.01,0.08,39.52
10,-0.02,1.01,0.08,40.62
10,-0.02,1.01,0.08,38.23
10,0.01,0.99,0.08,38.23
10,0.02,0.99,0.09,40.34
10,0.02,0.99,0.08,43.96
10,-0.01,1.00,0.08,43.87
10,-0.02,1.02,0.07,43.87
10,-0.02,1.00,0.07,38.47
10,-0.00,1.00,0.07,40.76
10,0.02,0.97,0.07,40.76
10,0.00,1.00,0.08,41.55
10,0.00,1.00,0.07,40.25
10,-0.02,1.02,0.07,40.25
10,-0.01,1.00,0.08,39.94
10,-0.01,1.00,0.08,44.22
10,0.02,0.98,0.08,44.22
10,0.01,0.99,0.07,41.09
10,0.01,0.96,0.08,37.24
10,-0.03,1.02,0.08,37.02
10,-0.01,1.01,0.08,40.16
10,-0.01,0.99,0.08,44.76
10,0.02,0.99,0.08,42.57
10,0.01,0.98,0.09,42.57
10,0.05,1.01,0.08,37.38
10,-0.01,1.01,0.08,44.05
10,-0.01,1.01,0.08,44.05
10,0.01,1.00,0.09,41.15
10,0.01,0.99,0.08,40.16
10,0.02,0.99,0.08,40.32
10,-0.01,1.01,0.09,38.75
10,-0.01,1.02,0.08,38.99
10,-0.02,1.02,0.08,44.08
10,-0.00,1.00,0.08,44.08
10,-0.05,0.98,0.07,42.27
10,0.01,0.98,0.08,37.88
10,0.00,1.01,0.08,37.88
10,-0.02,1.02,0.08,39.58
10,-0.02,1.02,0.08,41.95
10,-0.01,1.00,0.08,42.20
10,0.02,0.98,0.07,42.20
10,0.02,1.00,0.08,38.89
10,0.00,1.00,0.08,40.88
10,-0.02,1.02,0.08,40.88
10,-0.02,1.01,0.08,42.17
10,-0.02,1.01,0.08,40.97
10,0.01,0.99,0.08,40.97
10,0.01,0.99,0.08,40.84
10,0.01,0.99,0.08,42.40
10,-0.02,1.02,0.08,42.40
10,-0.02,1.01,0.09,41.78
10,-0.02,1.05,0.08,39.35
10,0.01,0.99,0.08,39.76
10,0.02,0.98,0.08,40.54
10,0.02,1.01,0.08,40.15
10,0.00,1.01,0.08,42.00
10,-0.02,1.02,0.08,42.00
10,-0.00,1.00,0.08,41.59
10,-0.00,1.00,0.08,36.41
10,0.01,0.99,0.08,36.41
10,0.00,1.00,0.08,44.61
10,0.00,1.00,0.08,40.30
10,-0.01,1.02,0.08,40.33
10,0.01,1.00,0.08,40.33
10,0.01,1.05,0.09,42.32
10,0.02,0.99,0.09,41.96
10,0.01,1.00,0.08,41.96
10,0.01,1.02,0.09,42.33
10,-0.02,1.02,0.07,40.72
10,-0.00,1.01,0.07,40.72
10,0.01,0.98,0.08,39.14
10,0.01,0.98,0.07,40.76
10,0.01,0.98,0.07,40.76
10,-0.02,1.01,0.08,39.01
10,-0.02,1.02,0.07,39.39
10,-0.02,1.02,0.07,39.61
10,0.00,0.99,0.08,39.61
10,0.00,0.99,0.07,44.60
10,0.02,0.99,0.07,42.12
10,-0.01,1.00,0.08,42.12
10,-0.02,1.02,0.08,42.16
10,-0.02,1.02,0.09,40.42
10,0.00,0.99,0.09,40.42
10,0.02,0.99,0.08,41.61
10,0.02,1.00,0.08,40.60
10,0.00,1.00,0.08,40.15
10,-0.02,1.01,0.08,37.80
10,-0.02,1.00,0.08,38.62
10,-0.00,1.00,0.08,41.47
10,0.02,0.99,0.08,41.47
10,0.00,0.99,0.08,37.53
10,0.00,0.99,0.07,39.89
10,-0.02,1.02,0.07,39.89
10,-0.01,1.01,0.08,41.28
10,-0.01,1.01,0.07,37.71
10,0.01,0.98,0.07,38.08
10,0.02,0.99,0.08,38.08
10,0.02,0.95,0.08,41.44
10,-0.02,1.01,0.08,42.18
10,-0.01,1.01,0.08,42.18
10,-0.01,0.99,0.09,43.13
10,0.01,0.99,0.09,40.21
10,0.01,0.98,0.09,40.21
10,0.05,1.01,0.08,42.07
10,-0.01,1.01,0.08,41.84
10,-0.01,1.02,0.08,41.84
10,-0.00,0.99,0.07,37.49
10,-0.00,0.98,0.08,38.65
10,0.01,0.98,0.08,38.77
10,-0.00,1.00,0.09,37.98
10,-0.00,1.02,0.08,41.82
10,-0.02,1.02,0.08,40.90
10,-0.01,1.00,0.08,40.90
10,-0.03,0.99,0.07,36.27
10,0.03,0.99,0.08,39.00
10,0.00,1.00,0.08,39.00
10,-0.03,1.01,0.08,38.02
10,-0.03,1.01,0.08,41.50
10,-0.01,1.00,0.08,41.98
10,0.02,0.99,0.08,38.07
10,0.02,1.00,0.08,38.42
10,0.01,1.00,0.08,39.26
10,-0.02,1.02,0.07,39.26
10,-0.01,1.01,0.08,43.01
10,-0.01,1.01,0.08,41.44
10,0.01,0.99,0.08,41.44
10,0.02,0.98,0.09,37.22
10,0.02,0.98,0.08,40.28
10,-0.00,1.00,0.08,40.28
10,-0.01,1.01,0.08,41.81
10,-0.01,1.06,0.08,38.65
10,-0.00,1.00,0.08,39.04
10,0.02,0.99,0.08,41.39
10,0.02,0.99,0.09,38.63
10,-0.01,0.99,0.09,46.82
10,-0.02,1.02,0.08,46.82
10,-0.05,1.01,0.07,35.54
10,0.01,1.01,0.08,38.00
10,0.01,0.99,0.08,38.00
10,0.01,0.99,0.08,35.71
10,0.01,0.96,0.08,36.41
10,-0.03,1.02,0.08,36.47
10,-0.02,1.01,0.08,39.61
10,-0.02,0.99,0.07,38.50
10,0.01,0.99,0.07,43.96
10,0.00,0.99,0.08,43.96
10,0.05,1.01,0.08,47.92
10,-0.02,1.01,0.08,37.50
10,-0.01,1.02,0.08,37.50
10,0.00,0.99,0.07,42.35
10,0.00,0.99,0.08,44.65
10,0.01,0.99,0.08,45.16
10,-0.01,1.00,0.08,39.68
10,-0.01,1.01,0.07,40.88
10,-0.01,1.01,0.07,37.96
10,-0.00,0.99,0.08,37.96
10,-0.00,0.98,0.09,39.60
10,0.02,0.98,0.08,40.20
10,-0.01,1.00,0.08,40.20
10,-0.01,1.02,0.08,44.20
10,-0.01,1.02,0.08,42.38
10,0.00,0.99,0.08,42.38
10,0.01,0.99,0.07,41.25
10,0.01,0.94,0.08,39.79
10,-0.01,1.00,0.08,39.57
10,-0.02,1.02,0.08,42.70
10,-0.02,1.01,0.07,39.29
10,-0.02,1.01,0.07,41.70
10,0.03,0.99,0.09,41.70
10,0.01,0.99,0.08,41.87
10,0.01,0.99,0.08,42.57
10,-0.01,1.01,0.08,42.57
11,0.01,1.00,0.08,41.35
11,0.01,0.97,0.08,41.35
11,0.00,1.00,0.08,46.28
11,0.00,1.02,0.08,40.50
11,-0.02,1.02,0.08,45.80
11,0.01,1.00,0.08,45.80
11,0.01,0.99,0.09,41.74
11,0.02,0.99,0.08,42.33
11,0.01,0.99,0.08,42.33
11,0.05,1.01,0.07,42.49
11,-0.01,1.01,0.08,42.26
11,-0.01,1.00,0.08,42.26
11,0.02,0.99,0.08,38.03
11,0.02,0.99,0.09,39.60
11,0.01,0.99,0.09,39.78
11,-0.01,1.01,0.08,42.13
11,-0.01,1.01,0.08,42.11
11,-0.01,1.01,0.08,42.46
11,0.01,1.00,0.07,42.46
11,0.02,0.99,0.08,41.77
11,0.02,0.99,0.08,42.36
11,-0.01,1.01,0.08,42.36
11,-0.02,1.02,0.08,36.97
11,-0.02,1.02,0.07,44.26
11,0.00,0.99,0.07,44.07
11,0.01,0.99,0.08,42.50
11,0.01,0.94,0.08,39.90
11,-0.01,1.00,0.08,39.20
11,-0.01,1.02,0.08,39.20
11,-0.01,1.01,0.09,43.34
11,-0.01,1.01,0.07,41.48
11,0.02,1.00,0.07,41.48
11,0.00,1.00,0.08,39.56
11,0.00,1.00,0.07,42.68
11,-0.02,1.01,0.07,42.68
11,-0.00,0.99,0.09,47.04
11,-0.00,0.99,0.07,38.33
11,0.02,0.99,0.07,38.84
11,0.01,0.99,0.07,38.06
11,0.01,1.00,0.08,37.93
11,-0.02,1.00,0.08,37.10
11,-0.01,1.01,0.08,37.10
11,-0.05,1.00,0.08,38.12
11,0.02,1.00,0.08,38.68
11,0.00,0.98,0.08,38.68
11,-0.01,1.00,0.08,40.57
11,-0.01,1.00,0.08,34.62
11,-0.01,1.01,0.08,35.01
11,0.00,1.00,0.08,44.41
11,0.00,0.98,0.08,41.89
11,0.01,0.98,0.08,42.67
11,-0.00,1.00,0.08,42.67
11,-0.01,1.02,0.09,39.63
11,-0.01,1.02,0.08,41.95
11,0.00,1.00,0.08,41.95
11,0.01,0.99,0.08,42.82
11,0.01,0.99,0.08,38.97
11,-0.00,0.99,0.08,38.97
11,-0.02,1.02,0.08,42.41
11,-0.02,1.01,0.07,37.11
11,-0.01,1.01,0.07,37.14
11,0.01,0.99,0.08,38.71
11,0.01,0.99,0.08,41.70
11,0.01,0.99,0.08,42.57
11,-0.02,1.01,0.08,42.57
11,-0.01,1.00,0.08,41.46
11,-0.01,1.00,0.09,35.57
11,-0.00,0.99,0.09,35.57
11,0.01,0.99,0.09,41.92
11,0.01,0.94,0.07,39.31
11,-0.00,1.01,0.07,39.76
11,-0.02,1.01,0.09,43.67
11,-0.02,1.00,0.07,37.61
11,0.00,1.00,0.07,40.46
11,0.01,0.99,0.08,40.46
11,0.06,1.00,0.08,40.06
11,-0.00,1.00,0.08,39.03
11,-0.02,1.02,0.08,39.03
11,0.00,1.00,0.08,45.48
11,0.00,1.00,0.08,42.94
11,0.02,0.99,0.08,42.95
11,-0.00,1.00,0.08,39.81
11,-0.00,0.95,0.07,41.77
11,-0.02,1.01,0.07,37.32
11,-0.01,1.01,0.08,37.32
11,-0.01,0.99,0.08,39.60
11,0.02,0.99,0.08,41.78
11,0.01,0.99,0.08,41.78
11,0.06,1.01,0.08,43.14
11,-0.01,1.01,0.07,37.49
11,-0.01,1.01,0.07,37.49
11,0.01,1.00,0.07,40.99
11,0.01,0.99,0.08,42.01
11,0.02,0.99,0.08,42.09
11,-0.02,1.02,0.08,37.39
11,-0.02,1.01,0.08,38.04
11,-0.01,1.01,0.08,37.54
11,0.00,1.00,0.08,37.54
11,0.02,0.99,0.07,42.79
11,0.02,0.99,0.08,42.51
11,-0.00,1.01,0.08,42.51
11,-0.02,1.01,0.07,40.60
11,-0.02,1.01,0.08,44.28
11,-0.01,1.00,0.08,44.24
11,0.02,0.99,0.09,41.10
11,0.02,1.00,0.07,38.33
11,0.00,1.00,0.07,38.44
11,-0.02,1.01,0.08,38.44
11,-0.00,1.01,0.08,39.17
11,-0.00,1.01,0.07,37.37
11,0.02,0.98,0.07,37.37
11,0.01,0.99,0.08,45.15
11,0.01,0.99,0.07,40.00
11,-0.00,1.01,0.07,40.00
11,-0.01,1.01,0.07,41.22
11,-0.01,1.05,0.08,42.04
11,0.02,0.99,0.08,44.20
11,0.01,0.99,0.08,44.20
11,0.01,1.01,0.08,39.60
11,-0.01,1.01,0.08,37.55
11,-0.02,1.02,0.08,37.55
11,-0.05,1.00,0.08,43.64
11,0.01,1.00,0.09,36.14
11,0.02,0.98,0.09,36.14
11,-0.01,1.00,0.08,42.00
11,-0.01,1.02,0.08,43.12
11,-0.01,1.02,0.08,43.04
11,-0.01,1.01,0.08,37.55
11,-0.01,0.99,0.08,40.61
11,0.01,0.99,0.08,40.45
11,0.00,1.00,0.09,40.45
11,0.05,1.01,0.07,42.57
11,-0.01,1.01,0.08,38.56
11,-0.01,1.02,0.08,38.56
11,0.01,0.99,0.08,39.98
11,0.01,0.99,0.08,39.00
11,-0.00,1.00,0.08,39.01
11,-0.01,1.01,0.09,38.22
11,-0.01,1.00,0.07,46.83
11,-0.00,1.00,0.07,36.62
11,0.01,0.99,0.07,36.62
11,0.01,0.99,0.08,38.71
11,0.01,0.99,0.08,40.20
11,-0.01,1.00,0.08,40.20
11,-0.01,1.01,0.07,39.72
11,-0.01,1.01,0.08,40.35
11,0.01,1.01,0.08,40.35
11,0.01,0.99,0.09,43.80
11,0.01,0.94,0.08,42.12
11,-0.01,1.00,0.08,41.92
11,-0.01,1.01,0.08,38.78
11,-0.01,1.01,0.08,46.77
11,0.00,1.01,0.08,44.26
11,0.01,0.99,0.08,44.26
11,0.06,0.99,0.08,39.23
11,-0.00,0.99,0.09,37.82
11,-0.03,1.00,0.09,37.82
11,-0.00,1.00,0.08,38.68
11,-0.00,0.99,0.07,40.74
11,0.01,0.99,0.07,40.93
11,0.01,1.00,0.08,37.79
11,0.01,1.01,0.08,36.21
11,-0.02,1.01,0.08,35.95
11,-0.01,1.01,0.08,35.95
11,-0.05,1.00,0.07,41.60
11,0.01,1.00,0.07,45.31
11,0.01,0.99,0.07,45.31
11,-0.00,1.01,0.08,40.39
11,-0.00,1.01,0.07,37.47
11,-0.02,1.01,0.07,37.47
11,0.01,1.00,0.08,42.72
11,0.01,1.05,0.08,41.79
11,0.01,0.99,0.08,41.76
11,-0.01,1.00,0.08,35.49
11,-0.01,1.02,0.07,43.75
11,-0.01,1.02,0.07,41.83
11,0.00,1.00,0.08,41.83
11,0.02,0.99,0.08,39.73
11,0.02,0.99,0.09,38.05
11,0.01,1.01,0.09,38.05
11,-0.02,1.01,0.09,42.10
11,-0.02,1.00,0.09,36.56
11,-0.01,1.00,0.09,36.05
11,0.01,0.99,0.08,38.40
11,0.01,1.00,0.08,39.09
11,-0.00,1.00,0.08,41.61
11,-0.02,1.00,0.08,41.61
11,-0.01,1.00,0.07,39.64
11,-0.01,1.00,0.08,40.14
11,0.01,0.99,0.08,40.14
11,0.02,1.00,0.08,45.10
11,0.02,1.00,0.08,44.05
11,-0.00,1.02,0.08,44.26
11,-0.01,1.02,0.08,52.10
11,-0.01,1.06,0.08,40.77
11,0.00,1.00,0.08,42.78
11,0.01,0.98,0.08,42.78
11,0.01,1.00,0.07,46.48
11,-0.01,1.00,0.08,46.69
11,-0.02,1.01,0.08,46.69
11,-0.05,1.00,0.07,36.84
11,0.01,1.00,0.08,39.71
11,0.01,0.98,0.08,39.71
11,-0.00,1.00,0.08,37.84
11,-0.00,0.95,0.08,37.43
11,-0.02,1.01,0.08,37.39
11,0.00,1.01,0.07,43.65
11,0.00,0.98,0.07,41.78
11,0.01,0.98,0.07,43.69
11,0.01,1.00,0.08,43.69
11,0.05,1.01,0.09,42.33
11,-0.01,1.01,0.07,40.11
11,-0.01,1.01,0.07,40.11
11,0.02,0.99,0.07,42.39
11,0.02,0.99,0.08,41.73
11,0.01,0.99,0.08,42.10
11,-0.01,1.01,0.07,42.10
11,-0.01,1.01,0.08,37.12
11,-0.01,1.01,0.08,39.84
11,-0.00,1.00,0.07,39.84
11,-0.05,0.99,0.08,43.96
11,0.01,0.99,0.08,43.09
11,-0.01,1.00,0.08,43.09
11,-0.02,1.00,0.08,48.86
11,-0.02,1.00,0.08,39.46
11,-0.00,1.00,0.08,39.46
11,0.02,0.98,0.08,38.23
11,0.02,1.00,0.08,43.89
11,-0.00,1.00,0.08,44.22
11,-0.01,1.02,0.08,43.43
11,-0.01,1.00,0.08,37.86
11,-0.00,1.00,0.09,39.86
11,0.01,0.99,0.09,39.86
12,-0.01,1.00,0.08,39.95
12,-0.02,1.01,0.08,39.95
12,-0.00,0.99,0.08,35.52
12,-0.00,0.99,0.07,37.16
12,0.02,0.99,0.07,37.16
12,-0.00,1.00,0.07,41.17
12,-0.00,1.02,0.08,41.49
12,-0.02,1.02,0.08,41.65
12,0.00,1.01,0.09,43.22
12,0.00,1.00,0.08,43.92
12,0.02,1.00,0.07,44.56
12,0.01,1.00,0.07,44.56
12,0.05,1.01,0.08,44.72
12,-0.01,1.01,0.07,39.77
12,-0.01,1.00,0.07,39.77
12,0.01,0.99,0.07,39.95
12,0.01,0.99,0.08,39.00
12,-0.00,0.99,0.08,38.75
12,-0.01,1.01,0.08,38.75
12,-0.01,1.00,0.09,42.65
12,-0.01,1.00,0.09,43.51
12,0.01,1.00,0.07,43.51
12,0.01,0.99,0.08,41.22
12,0.01,0.99,0.08,39.19
12,-0.01,1.01,0.08,39.19
12,-0.01,1.01,0.08,38.11
12,-0.01,1.01,0.08,36.89
12,0.01,1.00,0.08,37.38
12,0.01,0.98,0.08,43.64
12,0.01,0.94,0.07,43.40
12,-0.00,1.01,0.07,42.68
12,-0.01,1.01,0.07,42.68
12,-0.01,1.00,0.08,38.03
12,-0.00,1.00,0.08,45.71
12,0.02,1.00,0.08,45.71
12,0.00,1.00,0.08,40.91
12,0.00,1.00,0.08,42.51
12,-0.01,1.02,0.08,42.51
12,-0.01,1.00,0.08,36.08
12,-0.01,1.06,0.08,38.69
12,0.00,0.99,0.08,39.05
12,0.00,1.00,0.08,41.40
12,0.00,1.00,0.08,40.77
12,-0.01,1.00,0.08,47.53
12,0.00,1.00,0.07,47.53
12,0.01,0.99,0.08,38.79
12,0.01,0.99,0.08,37.38
12,0.00,1.00,0.08,37.38
12,-0.01,1.01,0.07,41.47
12,-0.01,1.01,0.07,49.17
12,-0.01,1.02,0.07,49.10
12,0.01,1.00,0.07,42.83
12,0.01,1.00,0.08,40.68
12,0.00,1.00,0.08,37.24
12,-0.01,1.00,0.08,37.24
12,-0.01,1.01,0.08,37.09
12,-0.01,1.01,0.07,43.46
12,0.00,1.00,0.07,43.46
12,0.02,0.99,0.08,42.84
12,0.02,0.99,0.07,38.02
12,0.00,1.00,0.07,38.02
12,-0.02,1.01,0.08,40.47
12,-0.02,1.00,0.07,40.67
12,-0.00,1.00,0.07,40.86
12,0.01,1.00,0.07,37.73
12,0.01,1.00,0.09,42.15
12,-0.00,1.00,0.09,43.56
12,-0.00,1.01,0.09,43.56
12,-0.00,1.00,0.08,43.72
12,-0.00,1.00,0.08,38.10
12,0.01,0.99,0.08,38.10
12,0.00,1.00,0.08,38.79
12,0.00,0.94,0.08,44.72
12,-0.01,1.00,0.08,45.31
12,-0.01,1.01,0.09,40.61
12,-0.01,0.99,0.07,39.29
12,-0.00,0.99,0.07,42.48
12,0.01,0.99,0.08,42.48
12,0.06,1.01,0.08,43.64
12,-0.01,1.01,0.08,36.43
12,-0.01,1.02,0.08,36.43
12,-0.00,1.00,0.08,37.20
12,-0.00,1.00,0.08,41.25
12,0.01,0.99,0.08,40.97
12,0.00,1.01,0.08,40.19
12,0.00,1.02,0.08,40.95
12,-0.01,1.02,0.08,41.70
12,-0.00,1.00,0.08,41.70
12,-0.00,1.00,0.08,38.79
12,0.01,1.00,0.08,38.03
12,0.01,0.99,0.08,38.03
12,0.05,1.00,0.08,40.62
12,-0.01,1.00,0.07,39.37
12,0.00,1.00,0.07,39.37
12,0.01,1.00,0.08,37.82
12,0.01,0.99,0.09,40.52
12,0.00,0.99,0.09,40.52
12,-0.00,1.01,0.08,37.39
12,-0.00,1.01,0.07,38.30
12,-0.02,1.01,0.07,38.42
12,0.01,1.00,0.08,38.42
12,0.00,0.99,0.08,43.25
12,0.00,0.99,0.08,46.63
12,-0.01,1.00,0.08,46.63
12,-0.02,1.02,0.08,43.18
12,-0.02,1.06,0.08,41.03
12,0.00,1.00,0.08,41.40
12,0.02,0.99,0.07,39.05
12,0.02,1.00,0.08,40.76
12,-0.00,1.00,0.08,44.65
12,-0.01,1.01,0.09,44.65
12,-0.06,1.00,0.09,42.52
12,0.00,1.00,0.08,41.34
12,0.01,1.00,0.08,41.34
12,0.01,1.01,0.08,40.17
12,0.01,1.01,0.08,40.91
12,-0.01,1.01,0.08,40.91
12,-0.01,1.00,0.07,40.17
12,-0.01,1.06,0.08,39.24
12,0.00,0.99,0.08,39.82
12,-0.00,0.99,0.07,39.03
12,-0.00,1.01,0.08,39.38
12,-0.00,1.01,0.08,43.69
12,-0.00,1.01,0.08,43.69
12,-0.06,0.99,0.07,45.22
12,0.00,0.99,0.08,43.92
12,0.01,0.99,0.08,43.92
12,-0.01,1.00,0.08,39.45
12,-0.01,1.01,0.07,45.14
12,-0.01,1.01,0.07,44.76
12,0.01,1.00,0.08,40.84
12,0.01,0.99,0.08,37.20
12,0.01,0.99,0.08,39.65
12,-0.00,1.00,0.08,39.65
12,-0.02,1.01,0.08,38.74
12,-0.02,1.01,0.08,42.96
12,-0.01,1.00,0.08,42.96
12,0.01,0.99,0.07,43.68
12,0.01,0.99,0.08,44.14
12,-0.00,0.99,0.08,43.88
12,-0.02,1.01,0.08,41.53
12,-0.02,1.01,0.08,37.89
12,-0.01,1.01,0.08,43.14
12,0.00,1.00,0.08,43.14
12,0.00,1.00,0.08,43.68
12,-0.00,1.00,0.08,42.01
12,-0.01,1.00,0.08,42.01
12,-0.01,1.00,0.07,37.86
12,-0.01,1.00,0.08,43.52
12,0.01,0.99,0.08,43.52
12,0.01,0.99,0.08,44.35
12,0.01,1.00,0.08,43.95
12,-0.01,1.00,0.08,43.87
12,-0.01,1.01,0.08,42.30
12,-0.01,1.00,0.08,40.24
12,0.01,1.00,0.08,43.95
12,0.02,1.00,0.08,43.95
12,0.06,1.00,0.06,43.37
12,-0.00,1.00,0.08,41.82
12,-0.02,1.01,0.08,41.82
12,-0.01,1.00,0.08,44.16
12,-0.01,1.00,0.08,39.10
12,0.01,1.00,0.08,39.68
12,0.00,1.00,0.07,40.47
12,0.00,1.01,0.07,37.06
12,-0.01,1.01,0.07,43.03
12,-0.01,1.00,0.08,43.03
12,-0.05,1.01,0.07,39.81
12,0.01,1.01,0.09,38.72
12,0.01,1.01,0.09,38.72
12,-0.01,1.01,0.08,37.00
12,-0.01,1.01,0.08,42.80
12,-0.00,1.01,0.08,42.80
12,0.01,0.99,0.08,38.85
12,0.01,0.94,0.07,42.43
12,0.00,1.00,0.07,42.80
12,-0.01,1.00,0.08,40.45
12,-0.01,1.01,0.07,41.02
12,-0.01,1.01,0.09,41.48
12,0.01,1.00,0.09,41.48
12,0.01,0.99,0.08,41.59
12,0.01,0.99,0.07,37.49
12,-0.00,1.00,0.07,37.49
12,-0.01,1.01,0.07,46.36
12,-0.01,1.00,0.07,40.95
12,0.01,1.00,0.07,40.81
12,0.01,0.99,0.09,46.30
12,0.01,1.00,0.08,42.11
12,0.00,1.00,0.08,42.48
12,-0.01,1.01,0.07,42.48
12,-0.01,1.01,0.07,39.73
12,-0.01,1.01,0.08,43.69
12,0.01,0.99,0.08,43.69
12,0.00,0.99,0.09,39.34
12,0.00,0.99,0.08,40.35
12,0.00,1.01,0.08,39.95
12,-0.01,1.01,0.07,41.52
12,-0.01,1.06,0.08,44.80
12,0.00,1.00,0.08,41.85
12,-0.00,0.99,0.08,41.85
12,-0.00,1.01,0.07,40.80
12,-0.01,1.01,0.08,42.99
12,-0.01,1.01,0.08,42.99
12,-0.06,0.99,0.09,42.87
12,0.00,0.99,0.08,40.23
12,0.00,0.99,0.08,40.23
12,-0.00,0.99,0.08,37.84
12,-0.00,0.95,0.07,38.11
12,-0.02,1.01,0.07,37.99
12,0.00,1.00,0.08,41.12
12,0.00,0.99,0.08,44.00
12,0.01,0.99,0.08,40.79
12,-0.00,1.00,0.08,40.79
12,-0.01,1.01,0.08,39.98
12,-0.01,1.01,0.08,38.24
12,-0.00,1.00,0.08,38.24
12,0.01,1.00,0.08,37.41
12,0.01,1.00,0.07,35.99
12,0.00,0.99,0.07,36.68
12,-0.01,1.01,0.08,46.86
12,-0.01,1.01,0.07,40.37
12,-0.01,1.01,0.07,41.14
12,0.01,0.99,0.08,41.14
12,0.01,0.99,0.08,39.52
12,0.01,0.99,0.07,47.45
12,-0.01,1.00,0.07,47.45
12,-0.02,1.01,0.08,40.69
12,-0.02,1.01,0.08,39.57
12,-0.00,1.00,0.08,39.57
12,0.01,0.99,0.08,44.21
12,0.01,0.94,0.08,43.45
12,0.00,1.00,0.08,43.70
12,-0.01,1.01,0.07,42.92
13,0.00,0.99,0.08,39.35
13,0.00,0.99,0.08,39.35
13,0.05,1.00,0.07,43.79
13,-0.01,1.00,0.08,42.32
13,-0.00,1.01,0.08,42.32
13,0.00,0.99,0.08,44.17
13,0.00,0.99,0.07,42.12
13,0.01,1.00,0.07,42.12
13,-0.02,1.00,0.08,45.92
13,-0.02,1.01,0.07,38.98
13,-0.01,1.01,0.07,39.09
13,0.00,1.00,0.07,42.22
13,0.00,0.99,0.08,42.85
13,0.00,0.99,0.08,43.84
13,-0.00,1.00,0.08,43.84
13,-0.01,1.01,0.07,49.42
13,-0.01,1.01,0.08,40.01
13,0.01,1.00,0.08,40.01
13,0.02,0.99,0.08,39.23
13,0.02,0.94,0.08,41.70
13,0.01,1.00,0.08,41.53
13,-0.02,1.01,0.09,43.88
13,-0.02,1.00,0.08,41.85
13,0.00,1.00,0.08,36.36
13,-0.00,1.00,0.08,36.36
13,-0.00,1.00,0.08,36.81
13,-0.00,1.00,0.09,39.81
13,-0.01,1.01,0.09,39.81
13,-0.01,1.00,0.07,39.14
13,-0.01,1.00,0.08,40.80
13,0.00,1.00,0.08,41.33
13,0.01,0.99,0.08,43.68
13,0.01,0.95,0.08,39.59
13,-0.01,1.01,0.08,42.49
13,-0.02,1.01,0.08,42.49
13,-0.02,1.00,0.08,36.97
13,-0.00,1.00,0.07,45.62
13,0.01,0.99,0.07,45.62
13,0.00,1.00,0.08,40.95
13,0.00,1.00,0.08,37.54
13,-0.01,1.00,0.08,37.54
13,-0.00,0.99,0.09,41.76
13,-0.00,1.00,0.09,44.73
13,0.01,1.00,0.09,44.91
13,-0.00,1.00,0.08,37.86
13,-0.00,1.00,0.08,43.88
13,-0.01,1.00,0.08,43.33
13,-0.01,1.01,0.08,43.33
13,-0.05,1.00,0.07,38.74
13,0.01,1.00,0.08,39.45
13,0.01,1.00,0.08,39.45
13,-0.01,1.00,0.08,44.22
13,-0.01,1.00,0.08,41.58
13,-0.01,1.01,0.08,41.53
13,0.02,0.99,0.07,39.96
13,0.02,1.00,0.08,43.35
13,0.01,1.00,0.08,41.27
13,-0.01,1.00,0.08,41.27
13,-0.01,1.00,0.08,37.63
13,-0.01,1.00,0.08,43.18
13,0.01,0.99,0.08,43.18
13,0.01,1.00,0.07,41.34
13,0.01,1.00,0.08,40.95
13,-0.01,1.00,0.08,40.95
13,-0.01,1.02,0.09,40.05
13,-0.01,1.00,0.08,38.08
13,0.00,1.00,0.08,37.89
13,0.00,0.99,0.09,43.37
13,0.00,1.00,0.08,42.89
13,-0.01,1.00,0.08,41.01
13,-0.02,1.01,0.08,41.01
13,-0.06,1.00,0.07,39.17
13,0.01,1.00,0.08,40.60
13,0.01,0.99,0.08,40.60
13,0.00,1.00,0.09,42.96
13,0.00,0.95,0.07,39.45
13,-0.02,1.01,0.07,39.48
13,-0.01,1.00,0.08,41.83
13,-0.01,1.00,0.08,40.12
13,0.00,1.00,0.08,43.18
13,0.00,1.00,0.08,43.18
13,0.00,1.00,0.08,39.59
13,0.00,1.00,0.08,46.72
13,-0.01,1.00,0.08,46.72
13,0.02,0.99,0.07,44.14
13,0.02,0.99,0.08,42.68
13,0.01,0.99,0.08,43.00
13,0.00,1.00,0.09,40.65
13,0.00,1.00,0.08,37.78
13,-0.01,1.00,0.08,45.46
13,-0.00,1.00,0.08,45.46
13,-0.00,0.99,0.08,44.78
13,0.00,0.99,0.09,38.48
13,0.00,0.99,0.09,38.48
13,0.06,1.00,0.08,48.62
13,-0.00,1.00,0.07,45.12
13,-0.01,1.00,0.07,45.12
13,0.01,0.99,0.07,39.42
13,0.01,0.94,0.08,43.85
13,0.01,1.01,0.08,44.54
13,-0.01,1.01,0.08,41.41
13,-0.01,1.00,0.08,43.05
13,-0.01,1.00,0.08,42.20
13,0.01,0.99,0.08,42.20
13,0.00,1.00,0.08,39.32
13,0.00,1.00,0.07,45.76
13,-0.00,1.01,0.07,45.76
13,-0.01,1.01,0.09,41.00
13,-0.01,1.01,0.09,44.64
13,-0.00,0.99,0.09,45.23
13,0.00,1.00,0.07,38.18
13,0.00,0.94,0.07,37.99
13,-0.01,1.00,0.07,38.61
13,-0.01,1.01,0.08,38.61
13,-0.06,1.01,0.07,41.26
13,0.00,1.01,0.07,40.59
13,0.01,0.99,0.07,40.59
13,0.00,1.00,0.08,43.84
13,0.00,1.00,0.07,36.25
13,-0.01,1.00,0.07,36.25
13,-0.00,1.00,0.08,41.08
13,-0.00,1.06,0.07,41.67
13,0.01,0.99,0.07,42.00
13,0.00,0.99,0.08,41.21
13,0.00,1.01,0.08,42.32
13,-0.01,1.01,0.07,39.71
13,-0.01,1.01,0.07,39.71
13,-0.06,1.00,0.07,41.35
13,0.00,1.00,0.08,43.93
13,0.00,0.99,0.08,43.93
13,-0.01,1.01,0.09,46.70
13,-0.01,1.01,0.08,41.64
13,-0.00,1.01,0.08,41.79
13,0.00,1.00,0.07,44.14
13,0.00,1.00,0.08,41.10
13,0.01,1.00,0.08,42.23
13,-0.01,1.01,0.08,42.23
13,-0.01,1.00,0.07,42.23
13,-0.01,1.00,0.09,44.22
13,0.00,1.00,0.09,44.22
13,0.00,0.99,0.08,43.08
13,0.00,0.99,0.08,42.26
13,-0.00,1.00,0.08,42.78
13,-0.01,1.00,0.07,42.00
13,-0.01,1.00,0.08,46.97
13,-0.01,1.00,0.08,43.11
13,0.01,0.99,0.08,43.11
13,0.01,1.00,0.08,36.76
13,-0.00,1.00,0.07,38.70
13,-0.02,1.01,0.07,38.70
13,-0.00,1.00,0.08,39.66
13,-0.00,1.00,0.08,41.24
13,0.00,1.00,0.08,41.24
13,0.01,1.00,0.08,37.73
13,0.01,0.94,0.07,40.93
13,-0.00,1.00,0.07,41.17
13,-0.01,1.01,0.08,41.95
13,-0.01,0.99,0.07,41.32
13,0.01,0.99,0.07,41.34
13,0.01,0.99,0.08,41.34
13,0.06,1.00,0.08,44.00
13,-0.00,1.00,0.08,40.47
13,-0.01,1.01,0.08,40.47
13,-0.00,1.00,0.08,40.88
13,-0.00,1.00,0.08,40.50
13,0.00,1.00,0.08,40.32
13,-0.00,1.00,0.09,41.89
13,-0.00,1.01,0.08,43.62
13,-0.00,1.01,0.08,43.61
13,0.01,1.00,0.08,43.61
13,0.01,0.99,0.09,42.41
13,0.01,0.99,0.07,41.32
13,0.00,0.99,0.07,41.32
13,-0.01,1.00,0.08,42.61
13,-0.01,1.00,0.08,37.22
13,-0.01,1.01,0.08,37.22
13,0.00,1.00,0.07,44.54
13,0.00,1.06,0.07,42.36
13,0.00,0.99,0.07,42.83
13,-0.01,1.00,0.08,38.91
13,-0.01,1.01,0.08,43.15
13,-0.02,1.01,0.07,36.44
13,-0.01,1.00,0.07,36.44
13,-0.05,1.00,0.08,43.48
13,0.01,1.00,0.07,43.40
13,-0.01,1.00,0.07,43.40
13,-0.01,1.01,0.08,39.62
13,-0.01,1.00,0.08,40.41
13,-0.00,1.00,0.08,40.30
13,0.01,1.00,0.07,41.86
13,0.01,0.99,0.08,43.31
13,0.00,0.99,0.08,38.24
13,-0.02,1.00,0.09,38.24
13,-0.00,1.01,0.08,44.20
13,-0.00,1.01,0.08,37.69
13,0.02,1.00,0.08,37.69
13,0.00,0.99,0.08,37.33
13,0.00,0.99,0.08,36.82
13,-0.01,1.01,0.08,36.93
13,-0.00,1.00,0.08,40.85
13,-0.00,0.99,0.08,44.91
13,0.00,0.99,0.08,39.07
13,0.01,1.00,0.07,39.07
13,0.01,1.01,0.08,42.67
13,-0.00,1.01,0.07,40.93
13,-0.01,1.00,0.07,40.93
13,-0.06,0.99,0.07,38.53
13,0.00,0.99,0.07,40.77
13,0.00,1.00,0.07,40.77
13,-0.00,1.00,0.08,37.57
13,-0.00,1.01,0.08,42.35
13,-0.01,1.01,0.08,42.75
13,0.01,1.01,0.07,38.05
13,0.01,0.99,0.08,43.78
13,0.01,0.99,0.08,36.66
13,-0.00,1.00,0.07,36.66
13,-0.01,1.00,0.08,43.56
13,-0.01,1.00,0.09,37.59
13,-0.00,0.99,0.09,37.59
13,0.01,1.00,0.08,40.22
13,0.01,1.00,0.08,41.45
13,-0.00,1.00,0.08,41.68
13,0.00,1.01,0.08,39.33
13,0.00,1.01,0.08,45.07
13,-0.01,1.01,0.08,40.21
13,0.01,0.99,0.08,40.21
13,0.06,0.99,0.08,39.24
13,-0.00,0.99,0.08,40.04
13,-0.01,1.00,0.08,40.04
13,-0.01,1.01,0.08,44.20
13,-0.01,1.01,0.08,40.27
13,-0.00,0.99,0.08,40.27
13,0.01,0.99,0.08,38.14
14,-0.01,1.01,0.08,37.14
14,-0.00,1.01,0.08,42.62
14,-0.00,0.99,0.07,39.68
14,0.00,0.99,0.07,41.12
14,0.00,1.00,0.08,41.12
14,0.06,1.01,0.08,37.38
14,-0.01,1.01,0.08,40.29
14,-0.01,1.01,0.08,40.29
14,0.02,0.99,0.08,41.56
14,0.02,0.99,0.08,45.16
14,0.00,1.00,0.08,44.72
14,-0.00,1.01,0.07,42.37
14,-0.00,1.01,0.07,46.19
14,-0.00,1.01,0.07,39.01
14,0.01,1.00,0.07,39.01
14,0.01,1.01,0.07,38.79
14,0.01,1.01,0.09,41.02
14,-0.01,1.00,0.09,41.02
14,-0.02,1.00,0.08,36.47
14,-0.02,1.00,0.08,39.98
14,-0.00,1.00,0.08,39.98
14,0.01,0.99,0.08,44.21
14,0.01,0.94,0.08,42.54
14,-0.00,1.00,0.08,42.65
14,-0.01,1.01,0.08,42.65
14,-0.01,0.99,0.08,37.72
14,-0.00,0.99,0.08,42.70
14,0.01,0.99,0.08,42.70
14,0.00,1.00,0.08,37.53
14,0.00,1.00,0.07,42.97
14,-0.00,1.00,0.07,42.97
14,0.00,1.01,0.07,42.44
14,0.00,1.06,0.09,37.53
14,0.00,0.99,0.09,37.06
14,0.01,1.00,0.08,46.46
14,0.01,1.01,0.08,40.71
14,-0.01,1.01,0.08,43.48
14,-0.00,1.01,0.08,43.48
14,-0.06,1.00,0.08,42.22
14,0.01,1.00,0.09,38.84
14,0.00,0.99,0.09,38.84
14,-0.01,1.01,0.08,42.49
14,-0.01,1.01,0.07,42.76
14,-0.01,1.01,0.07,42.34
14,-0.00,1.00,0.09,36.07
14,-0.00,1.00,0.08,36.81
14,0.01,1.00,0.08,39.38
14,0.00,1.00,0.08,39.38
14,0.00,1.01,0.08,43.50
14,-0.01,1.01,0.08,42.05
14,-0.01,1.00,0.08,42.05
14,-0.05,1.00,0.08,43.96
14,0.01,1.00,0.08,44.52
14,-0.01,1.00,0.08,44.52
14,-0.00,1.01,0.08,41.68
14,-0.00,1.01,0.08,43.18
14,-0.00,1.01,0.08,43.24
14,0.00,0.99,0.09,40.11
14,0.00,1.00,0.08,41.93
14,0.01,1.00,0.08,40.10
14,-0.00,1.00,0.08,40.10
14,-0.00,1.01,0.09,42.15
14,-0.00,1.01,0.08,38.77
14,0.00,1.00,0.08,38.77
14,0.00,0.99,0.08,40.37
14,0.00,0.95,0.08,45.07
14,-0.01,1.01,0.08,45.01
14,-0.01,1.00,0.07,41.88
14,-0.01,0.99,0.08,42.38
14,0.00,0.99,0.08,42.98
14,0.01,1.00,0.08,42.98
14,0.06,1.01,0.07,41.93
14,-0.01,1.01,0.09,36.67
14,-0.01,1.00,0.09,36.67
14,-0.01,1.00,0.08,39.54
14,-0.01,1.00,0.07,46.79
14,0.01,0.99,0.07,46.79
14,0.01,1.00,0.07,41.34
14,0.01,0.95,0.08,42.20
14,-0.01,1.01,0.08,42.22
14,-0.01,1.01,0.08,39.09
14,-0.01,1.00,0.08,37.13
14,0.01,1.00,0.08,40.80
14,0.01,1.00,0.08,40.80
14,0.05,1.00,0.08,42.33
14,-0.01,1.00,0.08,39.16
14,-0.01,1.00,0.08,39.16
14,0.00,1.00,0.08,37.02
14,0.00,1.06,0.08,39.14
14,0.00,1.00,0.08,39.12
14,-0.00,1.00,0.08,39.91
14,-0.00,1.00,0.08,36.68
14,-0.01,1.00,0.08,45.46
14,0.01,0.98,0.09,45.46
14,0.01,0.99,0.07,40.74
14,0.01,0.99,0.08,42.22
14,-0.00,1.00,0.08,42.22
14,-0.01,1.01,0.07,44.00
14,-0.01,1.01,0.08,43.01
14,0.00,1.00,0.08,42.60
14,0.00,0.99,0.08,48.08
14,0.00,0.99,0.08,40.61
14,0.00,0.99,0.08,38.09
14,-0.01,1.01,0.08,38.09
14,-0.01,1.00,0.07,38.56
14,-0.02,1.00,0.08,46.71
14,0.01,1.00,0.08,46.71
14,0.01,1.00,0.08,41.69
14,0.01,1.00,0.07,40.84
14,-0.01,1.00,0.07,40.84
14,-0.01,1.00,0.08,47.93
14,-0.01,1.06,0.09,39.73
14,-0.00,0.99,0.09,39.46
14,0.01,0.99,0.08,41.03
14,0.01,1.00,0.08,44.82
14,-0.01,1.00,0.08,43.14
14,-0.01,1.01,0.07,43.14
14,-0.06,1.00,0.08,42.52
14,0.00,1.00,0.07,40.17
14,0.01,1.01,0.07,40.17
14,-0.01,1.00,0.08,40.02
14,-0.01,1.00,0.08,37.56
14,-0.02,1.00,0.08,38.00
14,0.00,1.00,0.07,38.78
14,0.00,0.99,0.08,46.17
14,0.01,0.99,0.08,43.37
14,-0.00,1.00,0.08,43.37
14,-0.01,1.01,0.08,46.04
14,-0.01,1.01,0.10,37.95
14,0.00,1.00,0.10,37.95
14,-0.00,0.99,0.08,36.25
14,-0.00,0.99,0.08,37.32
14,0.01,1.00,0.08,37.32
14,-0.01,1.01,0.08,34.83
14,-0.01,1.06,0.08,43.01
14,-0.00,1.00,0.08,42.67
14,-0.00,0.99,0.08,40.32
14,-0.00,0.99,0.08,39.23
14,0.01,0.99,0.08,35.95
14,-0.01,1.00,0.08,35.95
14,-0.01,1.00,0.08,40.99
14,-0.01,1.00,0.08,41.37
14,0.00,1.00,0.08,41.37
14,0.01,0.99,0.08,42.03
14,0.01,0.94,0.07,40.29
14,-0.01,1.00,0.07,39.89
14,-0.01,1.01,0.08,39.89
14,-0.01,1.01,0.08,40.86
14,-0.01,1.01,0.08,40.73
14,-0.00,0.99,0.08,40.73
14,-0.05,1.01,0.08,41.11
14,0.01,1.01,0.08,40.14
14,-0.01,1.00,0.08,40.14
14,-0.01,1.00,0.08,42.00
14,-0.01,1.00,0.08,43.26
14,-0.00,1.00,0.08,43.14
14,0.00,1.00,0.07,39.23
14,0.00,0.94,0.07,40.38
14,-0.01,1.00,0.07,46.13
14,-0.01,1.01,0.09,46.13
14,-0.01,1.00,0.08,45.91
14,0.01,1.00,0.08,42.76
14,0.01,0.99,0.08,42.76
14,0.06,1.01,0.08,41.27
14,-0.01,1.01,0.08,44.48
14,-0.01,1.00,0.08,44.48
14,0.00,0.99,0.08,37.27
14,0.00,0.99,0.07,41.00
14,0.01,0.99,0.07,40.85
14,0.00,1.00,0.09,40.06
14,0.00,1.01,0.08,47.20
14,-0.01,1.01,0.08,40.87
14,0.00,1.00,0.07,40.87
14,0.06,1.00,0.08,34.88
14,-0.00,1.00,0.08,42.80
14,0.00,1.00,0.08,42.80
14,-0.01,1.01,0.09,47.36
14,-0.01,1.00,0.08,36.82
14,0.00,1.00,0.08,37.27
14,0.01,1.00,0.08,36.48
14,0.01,1.01,0.08,40.53
14,-0.00,1.01,0.08,44.58
14,-0.01,1.01,0.07,44.58
14,-0.00,1.01,0.08,39.48
14,-0.00,1.01,0.08,37.97
14,0.00,1.00,0.08,37.97
14,0.01,0.99,0.07,40.02
14,0.01,0.99,0.08,38.78
14,-0.01,1.01,0.08,38.78
14,-0.00,1.01,0.08,38.59
14,-0.00,1.06,0.08,36.54
14,0.02,0.99,0.08,36.05
14,0.00,1.00,0.07,42.31
14,0.00,1.00,0.07,38.99
14,-0.01,1.00,0.07,38.49
14,-0.01,1.01,0.08,38.49
14,-0.06,1.01,0.08,35.87
14,0.00,1.01,0.09,38.94
14,0.01,1.00,0.09,38.94
14,0.00,1.00,0.08,40.17
14,0.00,0.94,0.08,40.90
14,-0.02,1.00,0.08,41.10
14,0.00,1.01,0.07,37.18
14,0.00,1.00,0.09,43.23
14,-0.01,1.00,0.09,38.86
14,-0.01,1.00,0.08,38.86
14,-0.01,1.00,0.07,43.73
14,-0.01,1.00,0.09,43.31
14,-0.01,1.00,0.09,43.31
14,0.00,1.00,0.09,43.06
14,0.00,1.00,0.08,47.03
14,0.00,0.99,0.08,47.71
14,-0.01,1.00,0.09,39.10
14,-0.01,1.01,0.08,42.94
14,-0.00,1.01,0.08,38.05
14,0.00,1.00,0.07,38.05
14,0.00,0.99,0.08,39.51
14,-0.00,0.99,0.08,44.24
14,0.00,1.01,0.08,44.24
14,0.01,1.00,0.09,39.41
14,0.01,1.00,0.08,41.70
14,0.00,1.00,0.08,41.70
14,0.01,1.00,0.08,40.39
14,0.01,1.00,0.08,41.35
14,0.00,1.00,0.08,40.94
14,-0.01,1.01,0.09,38.59
14,-0.01,1.00,0.08,40.96
14,-0.00,1.00,0.08,37.64
14,0.01,0.99,0.08,37.64
14,0.01,1.00,0.07,40.53
14,0.01,1.00,0.08,39.24
14,-0.01,1.00,0.08,39.24
15,0.00,1.00,0.08,41.14
15,0.01,0.99,0.08,41.14
15,-0.00,1.00,0.08,38.85
15,-0.00,1.01,0.08,39.63
15,-0.00,1.01,0.08,39.12
15,-0.00,1.00,0.08,47.73
15,-0.00,1.00,0.08,40.80
15,0.00,1.00,0.08,40.50
15,-0.01,0.99,0.09,40.50
15,-0.01,1.01,0.08,39.16
15,-0.01,1.01,0.08,39.09
15,0.01,1.00,0.08,39.09
15,0.00,1.00,0.08,39.80
15,0.00,0.94,0.08,44.61
15,0.01,1.00,0.08,45.16
15,-0.00,1.01,0.08,41.24
15,-0.00,1.01,0.08,44.39
15,-0.01,1.01,0.08,43.95
15,0.00,1.00,0.08,43.95
15,0.00,0.99,0.08,35.82
15,0.00,0.99,0.07,39.37
15,-0.00,1.01,0.07,39.37
15,-0.00,1.01,0.09,42.67
15,-0.00,1.01,0.09,40.70
15,0.00,0.99,0.09,41.04
15,0.01,0.99,0.09,40.25
15,0.01,0.99,0.08,39.21
15,0.00,0.99,0.08,40.31
15,-0.01,1.01,0.08,40.31
15,-0.01,1.00,0.08,42.66
15,-0.01,1.00,0.07,41.38
15,0.01,0.99,0.07,41.38
15,0.05,1.00,0.08,41.47
15,-0.01,1.00,0.08,43.77
15,-0.01,1.00,0.08,43.77
15,-0.00,1.00,0.08,38.39
15,-0.00,0.99,0.08,42.36
15,0.01,0.99,0.08,42.91
15,-0.01,1.00,0.08,39.78
15,-0.01,1.01,0.09,38.04
15,-0.00,1.01,0.09,41.56
15,-0.00,1.00,0.07,41.56
15,-0.05,1.00,0.07,41.32
15,0.01,1.00,0.09,40.79
15,0.00,1.00,0.09,40.79
15,-0.01,1.00,0.08,44.02
15,-0.01,1.00,0.07,41.09
15,-0.00,0.99,0.07,41.03
15,-0.00,0.99,0.08,41.81
15,-0.00,1.00,0.08,44.19
15,0.02,1.00,0.08,39.22
15,0.00,1.00,0.08,39.22
15,0.01,1.01,0.07,35.95
15,0.01,1.01,0.09,41.05
15,-0.00,1.00,0.09,41.05
15,0.01,1.00,0.08,41.47
15,0.01,1.00,0.08,39.59
15,0.00,1.00,0.08,39.59
15,-0.00,1.01,0.08,46.02
15,-0.00,1.06,0.08,42.27
15,0.00,1.00,0.08,42.80
15,0.00,0.99,0.07,40.45
15,0.00,1.00,0.09,42.22
15,0.01,1.00,0.09,43.47
15,-0.00,1.00,0.07,43.47
15,-0.00,1.01,0.09,40.14
15,-0.00,1.01,0.08,37.95
15,0.01,1.00,0.08,37.95
15,0.00,0.99,0.08,41.02
15,0.00,0.94,0.07,43.07
15,0.00,1.00,0.07,43.55
15,-0.01,1.00,0.07,41.98
15,-0.01,1.00,0.09,42.33
15,0.00,1.00,0.09,47.90
15,0.01,0.99,0.06,47.90
15,0.06,1.02,0.08,45.62
15,-0.00,1.02,0.08,40.09
15,-0.01,1.01,0.08,40.09
15,0.00,1.00,0.08,39.38
15,0.00,1.00,0.07,43.78
15,-0.01,0.99,0.07,43.78
15,0.01,1.00,0.08,38.88
15,0.01,1.00,0.08,41.10
15,-0.01,1.00,0.08,42.83
15,-0.00,1.00,0.09,42.83
15,-0.00,1.00,0.08,43.25
15,-0.00,1.00,0.08,41.97
15,0.01,1.00,0.08,41.97
15,0.06,1.00,0.08,39.87
15,-0.00,1.00,0.07,42.49
15,-0.02,1.00,0.07,42.49
15,0.01,1.01,0.06,44.01
15,0.01,1.06,0.09,44.47
15,0.00,1.00,0.09,44.13
15,-0.00,1.01,0.08,45.70
15,-0.00,1.00,0.08,36.00
15,-0.00,1.00,0.08,44.33
15,0.00,1.00,0.08,44.33
15,0.00,1.01,0.08,38.40
15,0.00,1.01,0.09,42.06
15,-0.00,1.00,0.09,42.06
15,-0.01,1.01,0.08,40.84
15,-0.01,1.01,0.07,41.18
15,0.00,1.00,0.07,41.36
15,0.01,0.99,0.08,42.93
15,0.01,1.01,0.09,43.19
15,-0.00,1.01,0.09,41.47
15,-0.01,1.00,0.07,41.47
15,-0.06,1.00,0.07,41.63
15,0.00,1.00,0.08,43.43
15,0.01,0.99,0.08,43.43
15,0.01,1.00,0.09,41.94
15,0.01,1.00,0.08,39.01
15,-0.01,1.01,0.08,39.01
15,0.00,1.00,0.09,39.55
15,0.00,1.00,0.07,41.07
15,0.00,1.00,0.07,40.71
15,0.01,1.00,0.09,46.20
15,0.01,1.00,0.08,40.54
15,-0.01,1.00,0.08,42.87
15,0.00,1.01,0.08,42.87
15,0.06,1.00,0.07,41.73
15,-0.01,1.00,0.08,37.63
15,0.01,1.00,0.08,37.63
15,0.00,1.00,0.07,39.47
15,0.00,0.94,0.09,42.70
15,-0.01,1.01,0.09,42.97
15,0.00,1.00,0.08,35.92
15,0.00,0.98,0.08,46.36
15,-0.01,0.98,0.08,39.40
15,0.00,1.00,0.08,39.40
15,0.05,1.01,0.07,39.46
15,-0.01,1.01,0.09,37.34
15,0.00,1.00,0.09,37.34
15,0.00,1.00,0.08,43.02
15,0.00,1.00,0.08,41.21
15,-0.00,1.00,0.08,41.00
15,0.00,1.01,0.08,38.65
15,0.00,1.01,0.08,42.54
15,-0.00,1.01,0.08,37.28
15,0.01,0.99,0.07,37.28
15,0.01,1.00,0.08,43.01
15,0.01,1.00,0.09,44.12
15,0.00,1.01,0.09,44.12
15,0.06,1.00,0.08,42.72
15,-0.00,1.00,0.08,38.97
15,-0.00,1.00,0.08,38.97
15,0.01,1.00,0.07,41.07
15,0.01,1.01,0.08,38.25
15,-0.00,1.01,0.08,37.78
15,-0.01,1.01,0.08,42.48
15,-0.01,1.00,0.08,42.50
15,0.00,1.00,0.08,36.49
15,-0.01,1.00,0.08,36.49
15,-0.01,1.00,0.08,38.14
15,-0.01,1.00,0.08,45.47
15,-0.00,1.00,0.08,45.47
15,0.00,1.00,0.08,41.43
15,0.00,1.00,0.08,39.59
15,-0.00,0.99,0.08,39.53
15,0.01,0.99,0.09,43.45
15,0.01,0.94,0.08,45.01
15,-0.00,1.00,0.08,37.37
15,-0.01,1.00,0.08,37.37
15,-0.01,0.99,0.08,41.03
15,0.01,0.99,0.09,42.63
15,0.02,1.00,0.09,42.63
15,-0.01,1.00,0.07,41.25
15,-0.01,1.00,0.09,41.77
15,-0.01,1.00,0.09,41.77
15,0.00,0.99,0.07,42.35
15,0.00,1.00,0.08,37.91
15,0.01,1.00,0.08,37.92
15,-0.00,1.01,0.08,43.40
15,-0.00,1.01,0.08,37.31
15,-0.01,1.01,0.08,40.47
15,0.00,0.99,0.07,40.47
15,0.06,0.99,0.08,46.87
15,-0.00,0.99,0.08,40.97
15,0.00,1.01,0.08,40.97
15,-0.01,1.00,0.08,44.68
15,-0.01,1.06,0.08,40.01
15,0.00,1.00,0.08,40.25
15,0.00,1.00,0.08,42.60
15,0.00,1.00,0.08,44.59
15,-0.01,1.00,0.08,40.47
15,-0.01,1.00,0.07,40.47
15,-0.00,1.01,0.08,42.65
15,-0.00,1.01,0.08,42.95
15,0.00,0.99,0.08,42.95
15,0.00,0.99,0.08,42.07
15,0.00,0.99,0.08,41.23
15,-0.01,1.01,0.08,41.23
15,-0.00,1.00,0.08,38.15
15,-0.00,1.06,0.08,44.24
15,0.01,0.99,0.08,38.00
15,0.00,0.99,0.08,38.00
15,0.00,1.00,0.08,38.15
15,-0.00,1.00,0.07,39.28
15,-0.00,1.00,0.07,39.28
15,-0.06,1.00,0.08,41.61
15,0.00,1.00,0.09,40.02
15,-0.01,1.00,0.09,40.02
15,-0.00,1.00,0.08,42.22
15,-0.00,1.00,0.08,41.10
15,-0.00,1.00,0.08,41.11
15,-0.00,1.00,0.08,41.89
15,-0.00,0.99,0.08,45.42
15,-0.00,0.99,0.08,41.72
15,-0.01,1.00,0.09,41.72
15,-0.01,1.01,0.07,44.70
15,-0.01,1.01,0.08,38.41
15,-0.00,1.00,0.08,38.41
15,0.01,1.00,0.08,38.78
15,0.01,1.00,0.08,45.27
15,0.00,1.00,0.08,45.26
15,-0.00,1.00,0.08,40.56
15,-0.00,1.00,0.07,37.12
15,-0.00,1.00,0.07,43.35
15,0.00,1.00,0.07,43.35
15,0.00,1.00,0.08,40.80
15,0.01,1.00,0.08,45.23
15,-0.01,1.01,0.08,45.23
15,-0.01,1.01,0.08,36.63
15,-0.01,1.01,0.08,40.69
15,0.01,1.00,0.08,40.69
15,0.01,1.00,0.08,46.18
15,0.01,1.00,0.08,37.50
15,0.00,1.00,0.08,37.30
15,-0.01,1.00,0.08,41.22
15,-0.01,1.00,0.09,41.59
15,-0.00,1.00,0.09,43.92
15,0.02,1.00,0.09,43.92
16,-0.00,1.01,0.08,39.24
16,-0.00,0.99,0.08,39.24
16,-0.00,0.99,0.09,43.67
16,-0.00,0.99,0.08,43.18
16,0.00,0.99,0.08,43.41
16,-0.00,1.00,0.08,41.84
16,-0.00,1.01,0.09,37.86
16,-0.01,1.01,0.09,37.11
16,-0.00,0.98,0.09,37.11
16,-0.00,1.00,0.08,39.52
16,0.01,1.00,0.07,42.50
16,-0.00,1.01,0.07,42.50
16,-0.00,1.00,0.08,35.36
16,-0.00,1.00,0.08,38.41
16,-0.00,1.00,0.08,38.41
16,0.01,0.99,0.08,40.34
16,0.01,1.00,0.08,42.18
16,-0.00,1.00,0.08,41.85
16,-0.01,1.00,0.08,44.98
16,-0.01,1.01,0.08,41.01
16,-0.01,1.01,0.08,40.09
16,-0.00,1.00,0.09,40.09
16,-0.06,1.01,0.08,37.48
16,0.00,1.01,0.07,38.57
16,-0.01,1.00,0.07,38.57
16,-0.00,1.01,0.08,38.69
16,-0.00,1.01,0.08,39.58
16,0.00,1.00,0.08,39.76
16,0.01,0.99,0.07,42.11
16,0.01,0.94,0.07,39.78
16,-0.00,1.01,0.07,37.68
16,-0.01,1.01,0.09,37.68
16,-0.01,1.00,0.08,34.81
16,-0.01,1.00,0.08,43.74
16,0.01,1.00,0.08,43.74
16,-0.00,1.01,0.08,45.79
16,-0.00,1.01,0.08,43.66
16,-0.01,1.00,0.08,43.66
16,-0.00,1.00,0.08,42.18
16,-0.00,1.00,0.07,43.65
16,-0.00,1.00,0.07,43.24
16,0.01,1.00,0.08,40.89
16,0.01,1.01,0.08,43.83
16,-0.00,1.01,0.08,38.05
16,-0.01,1.00,0.08,38.05
16,-0.05,1.00,0.07,38.73
16,0.01,1.00,0.08,38.78
16,0.01,1.00,0.08,38.78
16,0.00,1.00,0.08,39.74
16,0.00,0.94,0.07,38.11
16,0.00,1.00,0.07,38.26
16,0.01,1.00,0.07,42.18
16,0.01,1.00,0.07,43.52
16,-0.00,1.00,0.07,39.14
16,-0.01,0.99,0.08,39.14
16,-0.01,1.00,0.08,41.13
16,-0.01,1.00,0.08,42.00
16,-0.00,1.00,0.08,42.00
16,0.01,1.00,0.09,37.93
16,0.01,1.00,0.08,40.23
16,0.00,0.99,0.08,40.42
16,-0.01,1.00,0.08,40.42
16,-0.01,0.94,0.07,43.64
16,-0.01,1.00,0.07,39.16
16,-0.00,0.99,0.09,39.16
16,-0.00,1.00,0.08,43.28
16,0.01,1.00,0.07,39.15
16,0.00,1.00,0.07,39.15
16,0.06,1.01,0.08,38.40
16,-0.01,1.01,0.08,38.66
16,0.00,0.99,0.08,38.66
16,0.00,1.00,0.09,36.71
16,0.00,1.01,0.08,39.71
16,-0.00,1.01,0.08,39.33
16,-0.00,1.00,0.09,40.89
16,-0.00,1.00,0.08,38.99
16,-0.00,1.00,0.08,43.84
16,0.00,1.00,0.08,43.84
16,0.06,1.01,0.08,38.90
16,-0.01,1.01,0.08,45.00
16,-0.00,1.01,0.08,45.00
16,-0.00,1.00,0.08,39.08
16,-0.00,1.00,0.08,43.86
16,0.01,0.99,0.08,44.32
16,-0.00,1.01,0.08,44.32
16,-0.00,1.01,0.07,42.64
16,-0.01,1.01,0.07,42.64
16,-0.01,1.01,0.08,42.64
16,-0.06,0.99,0.08,42.45
16,0.01,0.99,0.07,43.93
16,-0.00,0.99,0.07,43.93
16,-0.01,1.01,0.07,39.54
16,-0.01,1.01,0.08,41.80
16,-0.01,1.00,0.08,41.80
16,0.01,1.00,0.08,41.80
16,0.01,0.94,0.09,39.03
16,0.01,1.01,0.09,38.44
16,-0.01,1.00,0.08,43.92
16,-0.01,1.00,0.08,43.24
16,-0.01,1.00,0.08,42.88
16,0.01,1.00,0.07,42.88
16,0.06,1.00,0.07,42.16
16,-0.01,1.00,0.08,38.16
16,-0.00,1.00,0.08,38.16
16,-0.01,1.00,0.08,36.23
16,-0.01,0.94,0.07,39.23
16,0.01,1.00,0.07,39.38
16,0.00,0.99,0.08,41.73
16,0.00,1.01,0.08,38.00
16,-0.01,1.01,0.08,41.05
16,-0.01,1.01,0.08,41.05
16,-0.01,1.01,0.07,39.45
16,-0.01,1.01,0.07,40.77
16,-0.00,1.00,0.07,40.77
16,-0.01,1.00,0.07,38.74
16,-0.01,1.00,0.08,42.66
16,-0.01,1.01,0.08,42.26
16,0.00,1.00,0.07,39.91
16,0.00,1.00,0.08,41.65
16,0.01,1.00,0.08,39.98
16,0.00,1.00,0.08,39.98
16,0.00,1.01,0.08,44.00
16,-0.00,1.01,0.08,38.59
16,-0.01,1.01,0.08,38.59
16,-0.05,1.00,0.07,41.62
16,0.01,1.00,0.07,39.71
16,0.00,1.01,0.07,39.71
16,-0.00,1.01,0.08,42.11
16,-0.00,1.01,0.09,40.78
16,-0.00,1.01,0.09,40.94
16,-0.00,1.00,0.08,42.51
16,-0.00,1.00,0.08,35.82
16,0.01,1.00,0.08,40.35
16,-0.00,1.01,0.08,40.35
16,-0.06,1.00,0.07,39.22
16,0.00,1.00,0.08,41.81
16,-0.00,1.00,0.08,41.81
16,0.00,0.99,0.09,41.66
16,0.00,0.99,0.08,38.04
16,-0.00,1.00,0.08,37.54
16,-0.01,1.00,0.08,40.68
16,-0.01,1.06,0.09,39.87
16,0.00,1.00,0.09,45.77
16,0.01,1.00,0.08,45.77
16,0.01,1.00,0.08,39.02
16,-0.00,1.00,0.08,37.94
16,-0.01,1.00,0.08,37.94
16,-0.01,0.99,0.08,42.83
16,-0.01,0.99,0.08,40.01
16,-0.01,1.00,0.08,40.01
16,0.00,0.99,0.08,36.48
16,0.00,0.94,0.08,38.70
16,-0.01,1.01,0.08,38.72
16,-0.01,1.01,0.08,42.63
16,-0.01,1.00,0.07,45.56
16,0.01,1.00,0.07,44.98
16,0.00,0.99,0.08,44.98
16,0.06,1.00,0.09,45.00
16,-0.00,1.00,0.08,40.89
16,-0.00,1.01,0.08,40.89
16,-0.01,1.00,0.08,38.53
16,-0.01,1.06,0.08,41.45
16,0.01,1.00,0.08,42.23
16,-0.00,1.00,0.08,41.44
16,-0.00,1.01,0.08,41.61
16,0.00,1.01,0.08,48.05
16,0.01,1.00,0.08,48.05
16,0.00,1.00,0.07,40.29
16,0.00,1.00,0.08,43.70
16,0.00,1.01,0.08,43.70
16,-0.00,0.99,0.07,38.99
16,-0.00,0.99,0.08,39.24
16,-0.01,0.99,0.08,39.56
16,0.00,1.00,0.08,38.78
16,0.00,1.06,0.08,39.83
16,0.00,1.00,0.08,40.28
16,0.00,1.01,0.08,40.28
16,0.00,1.00,0.08,42.80
16,-0.00,1.00,0.08,40.85
16,-0.01,1.00,0.08,40.85
16,-0.06,1.01,0.09,39.53
16,0.00,1.01,0.08,42.06
16,-0.00,1.00,0.08,42.06
16,0.00,1.00,0.08,40.04
16,0.00,1.00,0.07,40.92
16,-0.00,1.00,0.07,41.14
16,0.01,1.00,0.08,46.62
16,0.01,1.00,0.07,40.81
16,0.00,1.00,0.07,37.97
16,0.00,1.00,0.08,37.97
16,0.00,1.00,0.08,48.01
16,0.00,1.00,0.08,39.00
16,0.00,0.99,0.08,39.00
16,-0.00,0.99,0.08,41.20
16,-0.00,0.99,0.08,41.00
16,-0.01,1.01,0.08,41.32
16,-0.01,1.00,0.08,38.97
16,-0.01,1.06,0.08,46.36
16,-0.00,1.00,0.08,42.20
16,0.01,1.00,0.08,42.20
16,0.01,1.01,0.08,39.42
16,-0.01,1.01,0.08,42.05
16,-0.01,1.01,0.08,42.05
16,0.00,1.00,0.08,38.45
16,0.00,1.00,0.08,42.11
16,-0.00,0.99,0.08,42.11
16,-0.00,1.01,0.09,39.29
16,-0.00,1.00,0.07,48.80
16,-0.01,1.00,0.07,49.27
16,-0.00,1.00,0.09,41.44
16,-0.00,1.00,0.08,41.60
16,0.01,1.00,0.08,40.08
16,-0.01,1.00,0.08,40.08
16,-0.00,1.00,0.07,41.14
16,-0.00,1.00,0.08,44.96
16,-0.00,1.00,0.08,44.96
16,0.00,1.00,0.09,39.96
16,0.00,0.94,0.08,41.96
16,0.01,1.00,0.08,41.92
16,-0.01,1.01,0.08,41.92
16,-0.01,1.00,0.09,42.23
16,-0.02,1.00,0.09,40.01
16,0.00,1.00,0.07,40.01
16,0.00,1.00,0.08,36.55
16,0.00,1.00,0.07,41.67
16,0.00,1.01,0.07,41.67
16,-0.00,1.00,0.08,40.97
16,-0.00,1.00,0.08,40.17
16,-0.00,1.00,0.08,40.63
16,0.00,1.00,0.08,41.41
16,0.00,0.94,0.08,40.97
16,0.00,1.00,0.08,42.89
16,-0.00,1.01,0.08,42.89
17,0.00,0.99,0.08,37.23
17,0.00,1.00,0.07,37.23
17,0.05,1.01,0.08,40.69
17,-0.01,1.01,0.08,40.60
17,-0.00,1.00,0.08,40.60
17,0.00,0.99,0.08,40.56
17,0.00,0.99,0.09,37.69
17,0.01,1.00,0.09,37.71
17,-0.01,1.00,0.08,39.28
17,-0.01,1.00,0.07,44.57
17,0.00,1.00,0.07,38.62
17,0.00,1.01,0.08,38.62
17,0.00,1.00,0.07,43.40
17,0.00,1.00,0.08,36.11
17,0.00,1.01,0.08,36.11
17,-0.01,1.01,0.08,42.73
17,-0.01,1.01,0.08,37.99
17,-0.00,0.99,0.08,37.99
17,0.00,1.00,0.08,42.92
17,0.00,1.00,0.08,38.66
17,-0.01,1.00,0.08,38.89
17,-0.01,1.01,0.07,41.24
17,-0.01,1.00,0.09,38.62
17,-0.00,1.00,0.08,42.94
17,0.01,0.99,0.08,42.94
17,0.06,1.00,0.07,40.69
17,-0.00,1.00,0.07,39.56
17,-0.00,1.00,0.07,39.56
17,0.00,1.01,0.07,42.58
17,0.00,1.06,0.07,42.40
17,0.00,0.99,0.07,42.95
17,-0.00,0.99,0.08,39.82
17,-0.00,1.00,0.08,41.62
17,0.00,1.00,0.08,38.26
17,-0.00,1.00,0.08,38.26
17,-0.00,1.00,0.07,40.14
17,-0.00,1.00,0.08,41.30
17,0.01,1.00,0.08,41.30
17,-0.00,1.00,0.07,45.18
17,-0.00,1.00,0.08,46.42
17,-0.01,1.01,0.08,46.59
17,0.00,1.00,0.08,40.33
17,0.00,1.06,0.08,40.15
17,0.00,1.00,0.08,43.83
17,0.00,1.00,0.08,43.83
17,0.00,1.00,0.07,44.11
17,-0.01,1.00,0.08,45.63
17,0.00,1.00,0.08,45.63
17,0.00,1.00,0.08,39.89
17,0.00,1.00,0.08,42.21
17,-0.00,1.00,0.08,42.21
17,-0.01,1.01,0.09,39.23
17,-0.01,1.06,0.08,45.74
17,-0.00,1.00,0.08,45.93
17,0.00,1.00,0.07,38.88
17,0.00,1.00,0.08,38.31
17,-0.00,1.00,0.08,41.35
17,-0.01,1.00,0.08,41.35
17,-0.00,1.01,0.08,44.69
17,-0.00,1.01,0.07,39.63
17,0.00,1.01,0.07,39.63
17,0.00,0.99,0.08,38.18
17,0.00,0.99,0.08,43.08
17,0.00,0.99,0.08,43.03
17,-0.01,1.00,0.08,38.33
17,-0.01,1.00,0.08,39.62
17,-0.00,1.00,0.08,42.32
17,0.01,0.99,0.07,42.32
17,0.06,1.00,0.08,41.44
17,-0.00,1.00,0.09,39.46
17,-0.01,1.00,0.09,39.46
17,0.00,1.00,0.08,43.57
17,0.00,1.00,0.08,46.66
17,0.01,1.01,0.08,46.66
17,-0.01,1.00,0.07,41.40
17,-0.01,1.00,0.08,42.33
17,-0.00,1.00,0.08,42.81
17,-0.00,1.00,0.07,41.24
17,-0.00,1.00,0.08,40.48
17,0.00,1.00,0.08,40.88
17,0.00,0.99,0.08,40.88
17,0.00,1.01,0.09,42.65
17,0.00,1.01,0.09,43.89
17,-0.01,1.00,0.09,43.89
17,-0.01,1.00,0.08,45.35
17,-0.01,1.06,0.08,43.30
17,0.00,1.00,0.08,43.12
17,-0.01,0.99,0.09,39.99
17,-0.01,1.01,0.08,44.03
17,-0.00,1.01,0.08,41.45
17,0.00,1.00,0.09,41.45
17,0.06,1.00,0.08,46.34
17,-0.00,1.00,0.08,41.64
17,0.00,0.99,0.08,41.64
17,-0.00,1.01,0.08,42.36
17,-0.00,1.01,0.08,45.57
17,0.00,1.00,0.08,46.11
17,0.00,0.99,0.08,42.19
17,0.00,0.95,0.08,36.32
17,0.00,1.01,0.08,40.39
17,-0.00,1.00,0.08,40.39
17,-0.00,1.00,0.08,43.63
17,-0.00,1.00,0.08,42.79
17,-0.00,1.00,0.08,42.79
17,-0.00,1.00,0.08,41.83
17,-0.00,1.00,0.08,40.75
17,-0.01,1.00,0.08,40.75
17,-0.00,1.01,0.08,40.56
17,-0.00,1.06,0.07,43.62
17,0.00,0.99,0.07,43.68
17,-0.00,1.00,0.07,39.77
17,-0.00,1.01,0.08,41.71
17,-0.00,1.01,0.08,40.81
17,-0.00,1.01,0.08,40.81
17,-0.06,1.00,0.08,40.64
17,0.00,1.00,0.08,37.75
17,0.00,0.99,0.08,37.75
17,-0.00,1.00,0.07,38.20
17,-0.00,1.00,0.07,39.16
17,-0.00,1.01,0.07,39.83
17,0.01,1.00,0.08,42.18
17,0.01,1.06,0.07,40.89
17,-0.00,1.00,0.07,46.07
17,0.00,1.00,0.08,46.07
17,0.05,1.00,0.09,41.52
17,-0.01,1.00,0.08,39.50
17,-0.00,0.99,0.08,39.50
17,0.00,1.00,0.07,42.63
17,0.00,1.00,0.08,42.06
17,-0.00,1.00,0.08,42.06
17,-0.00,1.00,0.09,44.35
17,-0.00,0.95,0.07,41.42
17,-0.00,1.01,0.07,40.84
17,0.00,1.00,0.08,42.41
17,0.00,1.00,0.09,39.64
17,0.00,1.00,0.09,43.34
17,-0.00,1.00,0.07,43.34
17,-0.01,1.01,0.08,41.03
17,-0.01,1.01,0.07,42.33
17,0.00,1.00,0.07,42.33
17,-0.00,1.00,0.07,44.60
17,-0.00,0.94,0.08,43.31
17,0.00,1.00,0.08,43.68
17,0.00,1.00,0.08,37.41
17,0.00,1.00,0.08,42.25
17,-0.00,1.00,0.08,41.64
17,0.01,0.99,0.08,41.64
17,0.00,1.00,0.07,42.03
17,0.00,1.00,0.07,40.32
17,-0.00,1.00,0.07,40.32
17,-0.00,1.00,0.09,42.33
17,-0.00,1.00,0.08,41.21
17,-0.00,1.01,0.08,40.67
17,0.00,0.99,0.08,39.89
17,0.00,0.94,0.09,42.91
17,-0.01,1.00,0.09,41.64
17,0.00,1.00,0.07,41.64
17,0.00,1.01,0.08,47.14
17,0.00,1.01,0.08,40.62
17,0.01,1.00,0.08,40.62
17,0.06,1.00,0.08,40.51
17,-0.01,1.00,0.08,40.04
17,-0.00,1.01,0.08,40.04
17,0.01,1.00,0.07,43.79
17,0.01,1.00,0.08,42.36
17,0.01,1.00,0.08,42.81
17,0.00,1.00,0.07,38.90
17,0.00,1.01,0.07,40.43
17,-0.00,1.01,0.07,40.05
17,-0.00,1.00,0.08,40.05
17,-0.06,0.99,0.08,40.66
17,0.00,0.99,0.08,39.83
17,-0.00,1.00,0.08,39.83
17,-0.01,1.00,0.09,39.26
17,-0.01,1.00,0.08,40.30
17,-0.00,1.00,0.08,39.94
17,-0.00,1.00,0.08,39.94
17,-0.00,1.00,0.08,39.44
17,0.00,1.00,0.08,38.25
17,-0.01,1.00,0.08,38.25
17,-0.00,1.00,0.08,41.46
17,-0.00,1.00,0.09,41.31
17,-0.00,1.00,0.09,41.31
17,0.00,1.00,0.08,37.81
17,0.00,1.00,0.08,40.24
17,-0.00,1.01,0.08,40.24
17,-0.00,1.01,0.08,44.54
17,-0.00,1.06,0.07,39.34
17,0.01,0.99,0.07,39.34
17,-0.00,1.00,0.09,43.25
17,-0.00,1.00,0.09,41.76
17,-0.00,1.00,0.08,41.26
17,-0.00,1.00,0.08,41.26
17,-0.05,1.00,0.07,38.42
17,0.01,1.00,0.09,40.93
17,0.00,0.99,0.09,40.93
17,0.00,1.00,0.07,40.68
17,0.00,0.94,0.07,40.92
17,-0.01,1.00,0.07,41.42
17,-0.00,0.99,0.08,40.63
17,-0.00,1.00,0.08,41.77
17,-0.01,1.00,0.08,41.81
17,-0.00,1.00,0.08,41.81
17,-0.00,1.00,0.09,40.14
17,-0.00,1.00,0.08,42.16
17,-0.00,1.01,0.08,42.16
17,0.00,1.00,0.08,42.71
17,0.00,1.00,0.07,43.04
17,-0.00,1.00,0.07,43.36
17,0.00,1.01,0.08,41.79
17,0.00,1.06,0.07,41.91
17,-0.00,1.00,0.07,46.36
17,0.00,1.00,0.08,46.36
17,0.01,0.99,0.08,42.46
17,0.01,0.99,0.08,40.01
17,0.00,1.01,0.08,40.01
17,-0.00,1.00,0.07,43.75
17,-0.00,1.00,0.08,41.63
17,-0.01,0.99,0.08,41.63
17,0.00,1.00,0.07,42.68
17,0.00,1.00,0.08,45.97
17,0.01,1.00,0.08,45.97
17,-0.01,1.00,0.08,43.62
17,-0.01,1.00,0.08,40.50
17,-0.00,1.00,0.08,42.33
17,0.00,1.00,0.07,42.33
17,0.06,0.99,0.08,43.30
17,-0.00,0.99,0.08,39.87
17,-0.00,1.01,0.08,39.87
17,-0.01,1.00,0.08,49.31
17,-0.01,1.00,0.07,39.81
17,0.01,1.00,0.07,39.76
17,0.00,0.99,0.08,41.32
18,-0.01,1.00,0.08,38.28
18,0.01,1.00,0.08,40.63
18,0.01,0.99,0.08,39.91
18,0.00,0.99,0.09,40.45
18,0.00,0.99,0.09,40.45
18,0.00,1.00,0.07,43.79
18,0.00,1.00,0.08,41.40
18,-0.00,1.00,0.08,41.40
18,-0.01,1.00,0.08,40.06
18,-0.01,1.00,0.08,41.16
18,-0.01,1.00,0.08,40.90
18,-0.01,1.01,0.08,41.68
18,-0.01,1.01,0.08,42.92
18,-0.01,1.01,0.08,39.01
18,-0.00,1.00,0.08,39.01
18,-0.05,1.00,0.07,43.38
18,0.01,1.00,0.08,40.91
18,-0.01,1.00,0.08,40.91
18,-0.01,1.00,0.08,43.72
18,-0.01,1.00,0.08,47.77
18,-0.00,1.00,0.08,48.15
18,-0.01,1.00,0.07,37.97
18,-0.01,1.00,0.09,40.02
18,-0.00,1.00,0.09,45.89
18,-0.00,1.00,0.08,45.89
18,-0.00,1.00,0.09,42.05
18,-0.00,1.00,0.08,39.57
18,0.01,0.99,0.08,39.57
18,0.06,1.00,0.08,42.19
18,-0.00,1.00,0.09,42.00
18,0.00,1.00,0.09,42.00
18,-0.00,1.00,0.08,40.21
18,-0.00,1.00,0.08,41.46
18,0.00,1.00,0.08,41.96
18,0.01,1.00,0.07,41.17
18,0.01,1.00,0.08,39.31
18,-0.00,1.00,0.08,39.33
18,-0.00,1.00,0.09,39.33
18,-0.00,1.01,0.09,38.53
18,-0.00,1.01,0.08,38.34
18,0.01,1.00,0.08,38.34
18,-0.00,1.00,0.08,39.40
18,-0.00,1.00,0.07,40.42
18,-0.00,1.00,0.07,40.11
18,0.00,1.00,0.07,44.03
18,0.00,1.00,0.08,39.84
18,-0.00,1.00,0.08,41.83
18,-0.01,1.00,0.08,41.83
18,-0.06,1.00,0.08,37.51
18,0.00,1.00,0.08,36.75
18,-0.01,1.01,0.08,36.75
18,0.00,1.00,0.07,40.82
18,0.00,1.00,0.08,44.54
18,0.01,1.00,0.08,44.54
18,-0.00,1.00,0.08,38.62
18,-0.00,0.94,0.08,43.35
18,0.00,1.00,0.08,43.49
18,0.00,1.00,0.08,43.49
18,0.00,1.00,0.07,36.05
18,-0.00,1.00,0.08,39.17
18,-0.00,1.01,0.08,39.17
18,-0.01,1.01,0.06,42.40
18,-0.01,1.01,0.08,43.54
18,0.01,1.01,0.08,43.54
18,-0.00,1.00,0.07,42.91
18,-0.00,0.94,0.08,39.69
18,-0.01,1.01,0.08,39.73
18,-0.00,1.00,0.08,42.87
18,-0.00,1.00,0.08,49.67
18,-0.00,1.00,0.08,44.12
18,0.00,1.00,0.08,44.12
18,0.06,1.00,0.09,42.70
18,-0.00,1.00,0.09,40.59
18,-0.01,1.00,0.09,40.59
18,-0.01,0.99,0.07,42.84
18,-0.01,0.99,0.08,40.53
18,-0.00,1.00,0.08,40.19
18,-0.01,1.00,0.09,42.54
18,-0.01,1.00,0.08,38.62
18,-0.00,1.00,0.08,48.86
18,-0.01,1.00,0.08,48.86
18,-0.01,1.00,0.08,41.01
18,0.00,1.00,0.08,41.92
18,0.00,1.00,0.08,41.92
18,0.00,1.00,0.08,41.97
18,0.00,1.00,0.07,44.82
18,-0.00,1.00,0.07,44.82
18,0.00,1.00,0.08,38.36
18,0.00,0.94,0.08,41.50
18,0.00,1.00,0.08,42.04
18,0.00,1.01,0.08,41.26
18,0.00,1.00,0.08,39.62
18,-0.01,1.00,0.08,42.90
18,0.00,1.00,0.08,42.90
18,0.00,1.00,0.09,40.94
18,0.00,1.00,0.08,42.45
18,-0.00,1.00,0.08,42.45
18,-0.01,1.00,0.08,44.53
18,-0.01,1.00,0.08,41.86
18,-0.00,1.00,0.08,41.99
18,0.01,1.00,0.08,41.99
18,0.01,1.00,0.08,37.74
18,-0.00,1.00,0.08,48.20
18,-0.01,1.00,0.08,48.20
18,-0.00,1.00,0.08,44.41
18,-0.00,1.00,0.08,38.59
18,-0.00,1.00,0.08,38.59
18,0.00,1.01,0.08,39.06
18,0.00,1.01,0.08,41.48
18,0.00,1.00,0.08,41.48
18,-0.00,1.00,0.07,40.53
18,-0.00,0.94,0.08,42.02
18,0.00,1.00,0.08,41.82
18,0.00,0.99,0.07,41.82
18,0.00,0.99,0.09,42.66
18,-0.00,0.99,0.08,43.05
18,-0.00,1.00,0.08,43.05
18,-0.06,1.00,0.08,43.06
18,0.01,1.00,0.08,37.69
18,-0.01,1.00,0.08,37.69
18,-0.00,1.01,0.09,41.63
18,-0.00,1.05,0.08,38.95
18,-0.01,0.99,0.08,38.69
18,-0.00,1.00,0.08,41.82
18,-0.00,1.01,0.07,42.75
18,0.01,1.01,0.07,42.40
18,-0.00,1.00,0.09,42.40
18,-0.06,1.00,0.07,43.32
18,0.00,1.00,0.08,39.89
18,-0.00,1.00,0.08,39.89
18,0.00,1.00,0.08,42.02
18,0.00,1.00,0.09,37.24
18,-0.00,1.00,0.09,37.44
18,-0.01,1.00,0.08,46.05
18,-0.01,1.00,0.08,42.80
18,-0.01,1.00,0.08,40.86
18,0.00,1.00,0.08,40.86
18,0.00,1.00,0.07,39.24
18,0.01,1.00,0.08,40.98
18,-0.01,1.00,0.08,40.98
18,-0.01,1.00,0.08,40.75
18,-0.01,1.00,0.08,42.32
18,0.00,1.01,0.08,42.32
18,-0.00,1.00,0.08,38.38
18,-0.00,1.00,0.08,39.88
18,-0.00,1.00,0.08,39.82
18,0.00,1.01,0.08,42.95
18,0.00,1.00,0.08,41.87
18,-0.01,1.00,0.08,39.32
18,-0.00,1.00,0.08,39.32
18,-0.00,1.00,0.08,42.62
18,-0.00,1.00,0.08,42.25
18,0.00,0.99,0.08,42.25
18,-0.00,1.00,0.08,36.56
18,-0.00,1.00,0.08,40.71
18,0.00,1.00,0.08,40.75
18,0.01,1.00,0.09,44.67
18,0.01,0.99,0.08,42.12
18,-0.00,0.99,0.08,44.95
18,-0.00,1.00,0.09,44.95
18,-0.06,1.00,0.08,40.67
18,0.00,1.00,0.07,39.03
18,0.00,1.00,0.07,39.03
18,-0.00,0.99,0.08,38.93
18,-0.00,0.99,0.08,40.98
18,-0.01,1.01,0.08,40.98
18,0.01,1.00,0.09,37.88
18,0.01,0.95,0.07,41.30
18,-0.00,1.01,0.07,41.27
18,-0.00,1.00,0.08,42.06
18,-0.00,1.00,0.08,38.52
18,-0.01,1.00,0.08,41.25
18,-0.00,0.99,0.07,41.25
18,-0.06,1.00,0.08,38.69
18,0.01,1.00,0.08,43.53
18,0.00,1.01,0.08,43.53
18,-0.01,1.00,0.08,40.47
18,-0.01,1.00,0.09,38.23
18,-0.00,1.00,0.09,38.25
18,-0.01,1.00,0.08,42.17
18,-0.01,1.00,0.07,37.49
18,0.01,1.00,0.07,43.92
18,0.00,1.01,0.09,43.92
18,0.00,0.99,0.08,41.81
18,0.00,0.99,0.08,38.84
18,0.01,1.00,0.08,38.84
18,0.00,0.99,0.09,37.34
18,0.00,0.99,0.08,43.66
18,0.00,1.01,0.08,43.38
18,-0.01,1.00,0.07,34.77
18,-0.01,1.05,0.08,38.59
18,0.00,0.99,0.08,46.04
18,0.01,1.00,0.07,46.04
18,0.00,1.01,0.08,36.62
18,0.00,1.01,0.09,40.89
18,-0.01,1.00,0.09,40.89
18,0.00,1.00,0.08,44.21
18,0.00,1.00,0.08,44.47
18,-0.00,0.99,0.08,44.47
18,0.00,0.99,0.08,42.48
18,0.00,0.99,0.09,41.13
18,-0.01,0.99,0.09,42.86
18,0.01,0.99,0.08,42.86
18,0.01,1.00,0.08,39.47
18,-0.00,1.00,0.09,45.33
18,0.00,1.00,0.09,45.33
18,0.06,1.00,0.08,41.39
18,-0.00,1.00,0.08,41.62
18,0.00,1.00,0.08,41.62
18,0.00,1.00,0.08,38.72
18,0.00,1.06,0.08,37.99
18,-0.00,1.00,0.08,38.24
18,-0.00,0.99,0.07,41.37
18,-0.00,1.01,0.08,37.20
18,-0.00,1.01,0.08,38.87
18,0.00,0.99,0.08,38.87
18,0.06,1.00,0.08,44.74
18,-0.00,1.00,0.08,38.83
18,-0.01,1.01,0.08,38.83
18,-0.00,1.00,0.08,42.04
18,-0.00,1.06,0.07,40.87
18,0.00,1.00,0.07,40.80
18,-0.00,1.00,0.08,38.45
18,-0.00,1.00,0.08,44.37
18,0.00,1.00,0.08,44.09
18,-0.00,1.00,0.07,44.09
18,-0.06,1.00,0.08,43.85
18,0.00,1.00,0.07,39.91
18,0.00,1.00,0.07,39.91
18,0.00,1.00,0.08,41.99
18,0.00,1.00,0.08,37.97
18,-0.00,1.00,0.08,37.90
18,0.00,1.00,0.06,48.87
19,-0.00,1.00,0.09,39.38
19,-0.01,0.99,0.08,42.51
19,-0.01,1.00,0.08,37.98
19,-0.01,1.00,0.07,39.77
19,0.00,0.99,0.07,39.77
19,0.00,1.00,0.08,41.73
19,0.00,1.00,0.08,36.46
19,0.00,1.01,0.08,36.46
19,-0.00,1.00,0.08,39.79
19,-0.00,1.05,0.09,44.84
19,-0.01,0.99,0.09,44.90
19,0.01,1.01,0.09,40.20
19,0.01,1.00,0.08,37.46
19,0.00,1.00,0.08,42.54
19,-0.01,1.00,0.07,42.54
19,-0.06,1.00,0.07,34.79
19,0.00,1.00,0.07,39.34
19,-0.00,1.01,0.07,39.34
19,0.00,1.00,0.07,40.29
19,0.00,1.00,0.08,39.06
19,-0.00,1.00,0.08,38.48
19,0.00,1.00,0.08,38.48
19,0.00,1.00,0.09,38.92
19,0.00,1.00,0.09,39.55
19,0.00,1.00,0.07,39.55
19,0.01,1.00,0.08,39.18
19,0.01,1.00,0.08,40.54
19,-0.00,1.00,0.08,40.54
19,-0.00,1.00,0.07,39.11
19,-0.00,1.00,0.08,43.48
19,0.01,1.01,0.08,43.20
19,-0.00,1.00,0.08,40.85
19,-0.00,1.00,0.07,41.91
19,-0.00,1.00,0.07,39.54
19,-0.00,1.00,0.08,39.54
19,-0.00,1.00,0.08,35.42
19,-0.00,1.00,0.08,41.61
19,-0.00,1.01,0.08,41.61
19,-0.01,1.01,0.08,40.49
19,-0.01,1.01,0.09,44.91
19,-0.00,1.01,0.09,44.91
19,0.01,1.00,0.08,43.01
19,0.01,1.00,0.08,40.63
19,0.00,1.00,0.08,40.24
19,-0.01,1.01,0.08,42.59
19,-0.01,1.01,0.09,39.68
19,-0.01,1.01,0.09,40.86
19,-0.00,1.00,0.08,40.86
19,-0.01,1.00,0.08,42.50
19,-0.01,1.00,0.07,41.77
19,0.01,1.00,0.07,41.77
19,-0.00,1.01,0.08,35.01
19,-0.00,1.06,0.08,36.70
19,-0.00,1.00,0.08,36.75
19,0.00,1.00,0.07,43.01
19,0.00,1.00,0.08,42.44
19,-0.01,1.00,0.08,36.80
19,-0.00,1.00,0.08,36.80
19,-0.01,1.00,0.07,39.43
19,-0.01,1.00,0.08,40.95
19,-0.00,1.00,0.08,40.95
19,0.00,0.99,0.08,38.79
19,0.00,0.99,0.09,42.47
19,0.00,1.00,0.09,42.76
19,-0.00,1.01,0.08,41.19
19,-0.00,1.00,0.09,44.66
19,0.01,1.00,0.09,39.39
19,-0.00,0.99,0.08,39.39
19,-0.01,1.01,0.08,38.18
19,-0.01,1.01,0.08,40.46
19,0.00,1.01,0.08,40.46
19,-0.00,0.99,0.08,42.72
19,-0.00,0.99,0.09,44.29
19,-0.00,0.99,0.09,44.29
19,-0.00,1.01,0.08,38.72
19,-0.00,1.00,0.09,43.14
19,0.00,1.00,0.09,42.42
19,0.01,1.00,0.08,42.42
19,0.01,1.00,0.09,40.55
19,0.00,1.00,0.08,34.90
19,0.01,1.00,0.08,34.90
19,0.06,1.00,0.07,45.14
19,-0.00,1.00,0.08,38.40
19,-0.01,1.01,0.08,38.40
19,-0.00,0.99,0.08,38.44
19,-0.00,0.99,0.08,42.48
19,-0.00,0.99,0.08,42.27
19,0.01,1.00,0.08,44.62
19,0.01,1.01,0.08,36.51
19,-0.00,1.01,0.08,41.10
19,-0.00,1.00,0.08,41.10
19,-0.06,1.00,0.07,39.76
19,0.01,1.00,0.08,40.31
19,-0.01,1.00,0.08,40.31
19,0.01,1.01,0.08,39.62
19,0.01,1.06,0.08,40.18
19,0.01,1.00,0.08,40.05
19,-0.01,1.00,0.08,40.05
19,-0.01,0.99,0.08,42.70
19,-0.00,0.99,0.08,38.25
19,-0.00,1.00,0.09,38.25
19,-0.01,1.00,0.08,42.44
19,-0.01,1.00,0.09,37.61
19,-0.00,1.00,0.09,37.61
19,0.00,1.00,0.09,43.64
19,0.00,1.00,0.09,44.64
19,-0.00,1.00,0.09,44.73
19,-0.01,1.00,0.08,41.59
19,-0.01,1.00,0.09,47.50
19,-0.00,1.00,0.09,39.88
19,0.00,1.01,0.08,39.88
19,0.00,1.00,0.07,44.41
19,0.00,1.00,0.07,44.28
19,-0.01,1.00,0.07,44.28
19,-0.00,1.00,0.08,39.42
19,-0.00,1.00,0.07,38.50
19,-0.01,1.00,0.07,38.50
19,-0.01,1.00,0.08,38.38
19,-0.01,1.06,0.08,41.02
19,-0.01,1.00,0.08,40.91
19,0.00,1.00,0.08,37.78
19,0.00,1.00,0.09,39.71
19,0.01,1.00,0.08,41.52
19,0.00,1.00,0.08,41.52
19,0.06,1.00,0.07,43.79
19,-0.01,1.00,0.08,43.35
19,-0.00,0.99,0.08,43.35
19,0.00,1.00,0.08,43.76
19,0.00,1.06,0.07,45.13
19,0.00,1.00,0.07,44.67
19,-0.00,1.00,0.08,40.76
19,-0.00,1.01,0.08,41.34
19,0.00,1.01,0.08,43.14
19,0.00,1.00,0.08,43.14
19,0.00,1.00,0.07,38.80
19,0.00,1.00,0.07,39.45
19,-0.00,1.01,0.07,39.45
19,-0.01,1.00,0.08,44.42
19,-0.01,1.00,0.08,43.08
19,-0.00,1.00,0.08,43.29
19,0.00,1.00,0.08,39.37
19,0.00,1.01,0.08,41.67
19,-0.00,1.01,0.08,41.92
19,-0.01,1.00,0.08,41.92
19,-0.00,0.99,0.07,42.76
19,-0.00,0.99,0.08,43.43
19,0.01,1.00,0.08,43.43
19,-0.01,1.01,0.08,36.40
19,-0.01,1.01,0.08,43.39
19,-0.00,1.00,0.08,43.06
19,0.00,1.00,0.08,41.50
19,0.00,1.00,0.08,37.92
19,-0.00,1.00,0.08,42.81
19,0.01,0.99,0.08,42.81
19,0.01,1.00,0.08,35.95
19,-0.00,1.00,0.07,44.12
19,-0.01,1.01,0.07,44.12
19,0.01,1.00,0.09,39.53
19,0.01,1.00,0.08,39.52
19,0.00,1.00,0.08,39.52
19,-0.01,0.99,0.08,45.58
19,-0.01,1.00,0.08,41.47
19,-0.00,1.00,0.08,41.48
19,0.00,1.00,0.08,39.91
19,0.00,1.00,0.07,39.75
19,0.01,1.00,0.07,43.10
19,-0.01,1.01,0.09,43.10
19,-0.00,1.00,0.09,46.32
19,-0.00,1.00,0.08,45.50
19,-0.01,1.00,0.08,45.50
19,0.01,1.00,0.07,43.30
19,0.01,0.94,0.08,43.69
19,-0.00,1.01,0.08,43.10
19,-0.00,1.00,0.07,40.75
19,-0.00,1.00,0.07,44.53
19,0.00,1.00,0.07,43.47
19,0.00,1.00,0.08,43.47
19,0.06,1.01,0.07,44.36
19,-0.00,1.01,0.09,42.25
19,0.00,1.00,0.09,42.25
19,-0.01,1.00,0.08,42.74
19,-0.01,1.00,0.07,38.50
19,0.00,0.99,0.07,38.70
19,0.00,1.00,0.07,38.70
19,0.00,1.00,0.07,43.66
19,0.00,1.00,0.07,42.88
19,-0.00,1.00,0.08,42.88
19,-0.06,1.00,0.08,41.38
19,0.00,1.00,0.08,41.71
19,0.00,1.00,0.08,41.71
19,-0.00,1.00,0.07,38.33
19,-0.00,1.00,0.09,42.38
19,-0.00,1.00,0.09,42.38
19,0.00,1.00,0.08,39.61
19,0.00,0.94,0.07,39.75
19,-0.00,1.01,0.07,39.98
19,-0.01,1.01,0.07,39.98
19,-0.01,1.00,0.08,40.18
19,0.00,1.00,0.07,37.09
19,-0.01,1.01,0.07,37.09
19,-0.06,0.99,0.08,41.54
19,0.00,0.99,0.08,41.35
19,-0.00,0.99,0.08,41.35
19,-0.00,1.00,0.08,44.28
19,-0.00,0.99,0.08,46.87
19,-0.01,0.99,0.08,46.59
19,0.00,1.00,0.08,43.45
19,0.00,1.01,0.08,41.41
19,-0.00,1.01,0.08,38.63
19,-0.00,1.00,0.09,38.63
19,-0.00,1.00,0.08,41.29
19,-0.00,1.00,0.09,45.40
19,-0.01,0.99,0.09,45.40
19,-0.00,1.00,0.09,43.07
19,-0.00,0.94,0.08,40.58
19,0.00,1.00,0.08,40.45
19,-0.01,1.01,0.08,42.02
19,-0.01,1.00,0.08,37.49
19,0.00,1.00,0.08,47.21
19,0.00,0.99,0.09,47.21
19,0.06,0.99,0.08,42.80
19,-0.01,0.99,0.07,47.09
19,-0.00,1.00,0.07,47.09
19,-0.00,0.99,0.08,39.30
19,-0.00,0.99,0.08,41.96
19,-0.00,1.00,0.08,42.13
19,0.00,1.01,0.07,42.13
19,0.00,1.00,0.08,43.38
19,-0.00,1.00,0.08,41.08
19,0.00,1.01,0.08,41.08
19,0.06,1.00,0.08,43.53
19,-0.00,1.00,0.08,42.03
20,-0.01,1.00,0.08,42.45
