seconds, accX, accY, accZ, temp
9,-0.02,1.02,0.08,39.99
9,-0.04,1.02,0.08,40.08
9,0.00,0.99,0.08,40.08
9,0.02,0.98,0.11,43.91
9,0.02,0.98,0.08,38.43
9,-0.01,1.01,0.08,38.43
9,-0.04,1.03,0.09,38.92
9,-0.04,1.06,0.09,38.21
9,-0.01,1.00,0.09,37.78
9,0.03,0.98,0.09,44.83
9,0.03,1.00,0.10,42.98
9,0.01,1.00,0.10,43.48
9,-0.04,1.03,0.08,43.48
9,-0.02,1.00,0.09,44.06
9,-0.02,1.00,0.09,40.75
9,0.02,0.98,0.09,40.75
9,0.00,0.99,0.10,39.94
9,0.00,0.99,0.08,41.25
9,-0.02,1.03,0.08,41.04
9,-0.03,1.01,0.08,43.39
9,-0.03,0.98,0.09,39.58
9,0.01,0.98,0.09,41.89
9,0.02,0.98,0.10,41.89
9,0.05,1.02,0.09,43.84
9,-0.02,1.02,0.09,46.93
9,-0.04,1.02,0.09,46.93
9,0.01,0.99,0.09,45.95
9,0.01,0.99,0.10,43.48
9,0.02,0.98,0.10,43.29
9,-0.01,1.01,0.10,40.94
9,-0.01,1.02,0.09,38.31
9,-0.03,1.02,0.09,36.02
9,0.00,1.00,0.08,36.02
9,0.00,0.97,0.08,39.46
9,0.02,0.97,0.08,39.82
9,0.00,1.00,0.08,39.82
9,0.02,1.03,0.09,44.40
9,-0.04,1.03,0.09,39.96
9,-0.03,1.01,0.09,39.96
9,0.02,0.98,0.09,41.13
9,0.02,0.99,0.09,37.75
9,0.01,0.99,0.09,38.05
9,-0.03,1.02,0.09,38.05
9,-0.03,1.02,0.08,40.73
9,-0.02,1.02,0.08,40.47
9,0.02,0.98,0.09,40.47
9,0.01,0.98,0.09,40.98
9,0.01,0.98,0.08,41.95
9,-0.01,1.02,0.08,41.95
9,-0.03,1.02,0.08,44.74
9,-0.03,1.05,0.09,46.73
9,0.01,0.99,0.09,46.68
9,0.02,0.97,0.09,41.98
9,0.02,1.02,0.09,36.23
9,-0.01,1.02,0.09,36.25
9,-0.03,1.02,0.09,36.25
9,-0.01,1.00,0.09,40.04
9,-0.01,1.00,0.09,37.84
9,0.02,0.96,0.09,37.84
9,-0.00,1.00,0.10,39.31
9,-0.00,1.00,0.08,44.46
9,-0.05,1.02,0.08,44.53
9,-0.01,1.01,0.08,42.18
9,-0.01,0.98,0.09,37.00
9,0.02,0.98,0.09,37.67
9,0.01,0.99,0.09,37.67
9,0.03,1.02,0.08,43.26
9,-0.03,1.02,0.09,44.97
9,-0.02,1.01,0.09,44.97
9,0.01,0.98,0.08,40.12
9,0.01,0.98,0.10,48.26
9,0.02,0.98,0.10,48.26
9,-0.02,1.03,0.08,38.53
9,-0.02,1.03,0.10,45.04
9,-0.03,1.03,0.10,45.34
9,0.00,0.98,0.09,45.34
9,0.00,0.98,0.10,41.91
9,0.01,0.98,0.09,41.98
9,-0.02,1.02,0.09,41.98
9,-0.04,1.03,0.08,36.35
9,-0.04,1.03,0.08,44.91
9,0.00,1.01,0.08,44.91
9,0.03,0.97,0.09,45.18
9,0.03,1.00,0.09,44.83
9,0.01,1.00,0.09,45.01
9,-0.03,1.04,0.09,37.96
9,-0.03,1.01,0.08,39.32
9,-0.01,1.01,0.08,42.85
9,0.02,0.97,0.08,42.85
9,0.01,0.98,0.09,41.43
9,0.01,0.98,0.08,42.47
9,-0.03,1.02,0.08,42.47
9,-0.02,1.02,0.07,38.14
9,-0.02,1.04,0.08,43.99
9,0.02,0.98,0.08,44.22
9,0.02,0.98,0.09,40.31
9,0.02,1.03,0.09,41.41
9,-0.02,1.03,0.09,41.49
9,-0.03,1.02,0.09,41.49
9,-0.05,0.99,0.09,40.97
9,0.01,0.99,0.10,42.06
9,0.03,0.98,0.10,42.06
9,-0.01,1.00,0.08,41.67
9,-0.01,1.00,0.09,41.29
9,-0.03,1.02,0.09,41.26
9,-0.00,1.00,0.08,42.04
9,-0.00,0.97,0.08,35.35
9,0.03,0.97,0.08,40.47
9,0.00,1.01,0.09,40.47
9,0.00,1.03,0.08,44.89
9,-0.04,1.03,0.09,37.74
9,-0.02,1.00,0.09,37.74
9,0.01,0.98,0.09,43.53
9,0.01,0.98,0.09,38.68
9,0.01,0.99,0.09,38.68
9,-0.03,1.02,0.10,42.12
9,-0.03,1.00,0.08,42.36
9,-0.02,1.00,0.08,39.76
9,0.02,0.98,0.10,39.76
9,0.02,0.98,0.09,40.91
9,0.02,0.98,0.09,43.76
9,-0.02,1.02,0.09,43.76
9,-0.03,1.01,0.09,41.84
9,-0.03,1.01,0.08,41.07
9,0.00,0.98,0.08,41.07
9,0.02,0.98,0.08,45.84
9,0.02,0.95,0.09,35.46
9,-0.01,1.01,0.09,35.47
9,-0.04,1.03,0.09,43.30
9,-0.04,0.99,0.09,48.18
9,-0.01,0.99,0.09,43.43
9,0.03,0.98,0.10,43.43
9,0.06,1.01,0.10,43.18
10,-0.03,1.02,0.08,42.16
20,0.00,1.00,0.08,43.00
20,-0.00,1.00,0.08,42.94
20,-0.00,1.00,0.07,36.67
20,-0.00,1.00,0.08,43.90
20,-0.00,1.00,0.08,43.55
20,0.00,1.00,0.08,43.55
20,0.00,1.00,0.09,40.79
20,0.00,1.00,0.08,40.86
20,0.00,1.00,0.08,40.86
20,0.00,1.00,0.08,43.69
20,0.00,1.06,0.07,42.33
20,0.00,1.00,0.07,42.93
20,0.00,1.00,0.08,45.28
20,0.00,1.00,0.09,41.56
20,0.00,1.00,0.09,41.27
20,0.00,1.00,0.07,41.27
20,0.00,1.01,0.07,41.22
20,0.00,1.01,0.08,41.34
20,-0.00,1.00,0.08,41.34
20,-0.00,1.00,0.08,43.28
20,-0.00,1.00,0.07,39.33
20,0.01,1.00,0.07,39.33
20,0.00,1.01,0.09,37.68
20,0.00,1.00,0.08,39.61
20,0.00,1.00,0.08,42.18
20,-0.00,1.00,0.08,42.18
20,-0.00,1.01,0.08,40.06
20,0.00,1.01,0.09,39.55
20,-0.00,1.00,0.09,39.55
20,-0.00,1.01,0.08,39.20
20,-0.00,1.01,0.08,43.87
20,-0.01,1.00,0.08,43.87
20,-0.00,1.01,0.08,42.65
20,-0.00,1.00,0.08,39.18
20,0.01,1.00,0.08,39.36
20,-0.00,1.01,0.07,45.63
20,-0.00,1.00,0.08,43.31
20,-0.00,1.00,0.08,38.73
20,-0.00,1.00,0.08,38.73
20,-0.00,1.00,0.07,41.71
20,-0.00,1.00,0.09,46.00
20,-0.01,0.99,0.09,46.00
20,0.00,1.00,0.08,39.40
20,0.00,1.00,0.08,43.85
20,-0.01,1.00,0.08,43.95
20,0.00,1.00,0.07,40.04
20,0.00,1.06,0.08,36.15
20,-0.00,1.00,0.08,39.56
20,-0.00,1.00,0.08,39.56
20,-0.00,1.00,0.09,38.60
20,0.00,1.00,0.08,41.39
20,0.00,1.00,0.08,41.39
20,0.01,1.00,0.07,46.51
20,0.01,1.00,0.08,43.14
20,-0.01,1.00,0.08,43.14
20,-0.00,1.01,0.08,37.16
20,-0.00,1.06,0.08,43.79
20,-0.00,0.99,0.08,43.60
20,-0.01,1.00,0.08,42.04
20,-0.01,1.00,0.08,40.45
20,-0.01,1.00,0.08,37.84
20,-0.01,1.00,0.08,37.84
20,-0.01,1.00,0.08,43.27
20,-0.01,1.00,0.08,42.75
20,-0.00,0.99,0.08,42.75
20,-0.01,1.01,0.09,38.39
20,-0.01,1.01,0.09,42.26
20,0.00,1.01,0.09,42.97
20,0.01,1.00,0.08,40.62
20,0.01,1.00,0.08,43.00
20,0.00,1.00,0.08,41.38
20,-0.00,1.01,0.08,41.38
20,-0.06,1.01,0.07,40.21
20,0.00,1.01,0.08,41.97
20,-0.01,1.00,0.08,41.97
21,-0.01,0.99,0.08,40.87
21,-0.00,0.99,0.08,40.92
21,0.00,1.00,0.07,39.35
21,0.00,0.94,0.08,42.07
21,-0.01,1.00,0.08,43.27
21,0.01,1.00,0.07,43.27
21,0.01,1.01,0.08,39.01
21,0.00,1.01,0.08,42.56
21,-0.01,1.00,0.08,42.56
21,-0.06,1.00,0.08,39.57
21,0.00,1.00,0.08,39.40
21,0.00,1.00,0.08,39.40
21,-0.00,1.00,0.08,36.87
21,-0.00,1.01,0.08,39.23
21,-0.01,1.01,0.08,39.38
21,0.00,1.01,0.07,41.73
21,0.00,0.99,0.08,41.67
21,-0.00,0.99,0.08,43.21
21,0.01,0.99,0.08,43.21
21,0.00,1.00,0.08,40.27
21,0.00,1.00,0.07,41.25
21,-0.01,1.00,0.07,41.25
21,-0.01,1.00,0.09,39.89
21,-0.01,1.00,0.07,40.42
21,0.00,1.00,0.07,39.91
21,0.00,1.00,0.08,44.61
21,0.00,1.00,0.08,43.21
21,0.00,1.00,0.08,40.27
21,-0.00,1.00,0.08,40.27
21,-0.00,1.00,0.08,41.05
21,0.01,1.00,0.07,40.39
21,-0.01,1.00,0.07,40.39
21,-0.00,0.99,0.08,41.37
21,-0.00,0.99,0.07,41.74
21,0.00,1.00,0.07,41.74
21,0.00,0.99,0.07,38.76
21,0.00,0.99,0.08,40.19
21,-0.00,0.99,0.08,40.17
21,-0.01,1.00,0.07,44.08
21,-0.01,1.00,0.08,45.58
21,-0.00,1.00,0.08,38.02
21,-0.00,1.00,0.08,38.02
21,-0.01,1.00,0.08,41.94
21,-0.01,1.00,0.08,43.23
21,0.00,0.99,0.08,43.23
21,-0.01,1.00,0.08,36.71
21,-0.01,1.00,0.08,38.07
21,-0.00,1.00,0.08,37.73
21,0.00,1.00,0.09,36.16
21,0.00,1.00,0.07,39.19
21,-0.00,1.00,0.07,39.66
21,0.00,1.00,0.08,39.66
21,0.06,1.00,0.08,41.56
21,-0.00,1.00,0.07,36.05
21,0.01,1.01,0.07,36.05
21,0.00,1.00,0.08,42.86
21,0.00,1.00,0.08,39.35
21,-0.00,1.00,0.08,39.35
21,-0.00,1.00,0.09,40.94
21,-0.00,1.06,0.07,41.92
21,0.01,1.00,0.07,40.36
21,0.00,1.00,0.08,40.36
21,0.00,1.00,0.08,44.33
21,0.00,1.00,0.08,44.96
21,-0.00,1.00,0.08,44.96
21,-0.00,1.01,0.08,40.21
21,-0.00,1.01,0.08,41.05
21,0.01,1.00,0.08,41.05
21,-0.00,0.99,0.08,40.82
21,-0.00,0.94,0.07,41.10
21,-0.00,1.00,0.07,40.87
21,0.00,1.01,0.08,44.01
21,0.00,1.00,0.08,44.10
21,0.00,1.00,0.08,37.78
21,-0.00,1.01,0.08,37.78
21,-0.01,1.00,0.08,38.88
21,-0.01,1.00,0.08,40.88
21,-0.00,1.00,0.08,40.88
21,-0.00,1.00,0.08,39.98
21,-0.00,1.00,0.09,42.99
21,0.01,1.00,0.09,42.81
21,-0.01,1.00,0.08,40.46
21,-0.01,1.06,0.08,39.14
21,-0.00,0.99,0.08,35.91
21,0.00,1.00,0.07,35.91
21,0.00,0.99,0.08,40.71
21,0.01,0.99,0.08,41.18
21,-0.01,1.00,0.08,41.18
21,-0.00,1.00,0.08,41.20
21,-0.00,1.00,0.08,37.96
21,0.01,1.01,0.08,37.96
21,-0.00,1.00,0.08,39.17
21,-0.00,0.99,0.08,37.33
21,-0.01,0.99,0.08,37.51
21,-0.00,1.00,0.07,35.16
21,-0.00,1.00,0.08,40.06
21,-0.00,1.00,0.08,37.28
21,0.01,1.01,0.09,37.28
21,0.00,1.00,0.08,45.48
21,0.00,1.00,0.08,43.38
21,-0.00,1.00,0.08,43.38
21,0.00,1.00,0.07,43.71
21,0.00,1.00,0.09,39.09
21,-0.00,1.00,0.09,39.05
21,-0.01,1.00,0.08,40.62
21,-0.01,1.01,0.07,44.05
21,-0.01,1.01,0.07,41.56
21,-0.00,1.00,0.07,41.56
21,-0.06,1.01,0.08,44.01
21,0.00,1.01,0.08,43.47
21,-0.00,1.00,0.08,43.47
21,-0.00,1.00,0.08,40.98
21,-0.00,1.00,0.09,38.63
21,-0.01,0.99,0.09,38.64
21,-0.01,1.00,0.07,40.21
21,-0.01,1.06,0.08,44.29
21,0.00,1.00,0.08,39.31
21,-0.01,1.01,0.08,39.31
21,-0.01,0.99,0.08,39.31
21,-0.00,0.99,0.08,37.60
21,0.00,1.01,0.08,37.60
21,0.00,1.00,0.08,40.13
21,0.00,1.00,0.09,38.45
21,-0.00,1.00,0.09,38.45
21,-0.00,1.00,0.08,39.90
21,-0.00,0.95,0.09,39.76
21,-0.01,1.01,0.09,39.49
21,-0.01,1.01,0.09,43.40
21,-0.01,1.00,0.08,39.35
21,0.01,1.00,0.08,39.12
21,-0.01,1.00,0.08,39.12
21,-0.06,1.00,0.08,44.52
21,0.01,1.00,0.07,43.75
21,0.01,1.00,0.07,43.75
21,-0.00,1.00,0.08,44.07
21,-0.00,1.00,0.08,40.33
21,-0.00,1.00,0.08,39.92
21,-0.00,1.01,0.08,40.70
21,-0.00,1.00,0.07,41.44
21,0.00,1.00,0.07,42.21
21,0.00,1.00,0.08,42.21
21,0.00,1.00,0.08,40.17
21,-0.00,1.00,0.08,39.65
21,-0.00,1.00,0.08,39.65
21,-0.00,1.00,0.08,38.25
21,-0.00,1.00,0.08,36.14
21,0.01,1.00,0.08,36.14
21,0.00,0.99,0.08,39.42
21,0.00,0.94,0.08,41.09
21,-0.00,1.00,0.08,40.72
21,-0.00,1.00,0.09,43.86
21,-0.00,1.01,0.08,41.03
21,0.00,1.01,0.08,42.75
21,-0.01,1.00,0.08,42.75
21,-0.00,0.99,0.08,41.72
21,-0.00,0.99,0.09,40.31
21,0.00,1.00,0.09,40.31
21,0.00,0.99,0.08,39.03
21,0.00,0.94,0.08,40.55
21,0.00,1.00,0.08,40.02
21,0.00,1.00,0.08,40.80
21,0.00,1.01,0.08,39.14
21,-0.00,1.01,0.08,44.42
21,-0.00,1.01,0.08,44.42
21,-0.00,1.00,0.08,41.58
21,-0.00,1.00,0.07,42.89
21,0.01,1.01,0.07,42.89
21,-0.00,1.00,0.07,38.92
21,-0.00,1.00,0.08,37.65
21,-0.00,1.00,0.08,38.14
21,0.00,1.00,0.08,40.49
21,0.00,0.94,0.08,39.50
21,-0.01,1.01,0.08,39.59
21,0.00,1.00,0.08,39.59
21,0.00,1.00,0.08,41.25
21,-0.00,1.00,0.08,45.63
21,0.01,1.01,0.08,45.63
21,0.05,1.00,0.08,40.43
21,-0.01,1.00,0.08,37.90
21,-0.00,1.00,0.08,37.90
21,0.00,1.00,0.08,37.68
21,0.00,1.06,0.07,45.27
21,-0.00,0.99,0.07,45.10
21,0.00,1.01,0.08,47.45
21,0.00,1.00,0.08,42.00
21,-0.01,1.00,0.08,39.16
21,-0.01,1.00,0.07,39.16
21,-0.06,1.00,0.09,39.42
21,0.00,1.00,0.08,41.80
21,-0.01,1.00,0.08,41.80
21,0.00,1.01,0.08,37.19
21,0.00,1.01,0.08,38.41
21,-0.00,1.00,0.08,38.34
21,-0.00,1.00,0.08,39.90
21,-0.00,1.06,0.08,39.31
21,-0.01,1.00,0.08,43.26
21,-0.00,1.00,0.08,43.26
21,-0.00,1.01,0.08,39.62
21,0.00,1.01,0.08,45.67
21,-0.00,1.00,0.08,45.67
21,-0.01,1.00,0.07,38.40
21,-0.01,1.00,0.08,38.01
21,0.00,1.00,0.08,38.01
21,-0.00,1.00,0.08,41.44
21,-0.00,1.01,0.08,42.10
21,0.00,1.01,0.08,41.91
21,-0.00,0.99,0.09,36.43
21,-0.00,1.00,0.08,39.07
21,0.00,1.00,0.08,45.05
21,0.00,1.00,0.08,45.05
21,0.00,1.00,0.07,43.45
21,0.00,1.00,0.08,44.60
21,0.00,0.99,0.08,44.60
21,-0.00,1.00,0.08,40.24
21,-0.00,0.94,0.08,39.86
21,0.01,1.00,0.08,39.84
21,-0.01,1.00,0.08,41.41
21,-0.01,1.01,0.07,41.57
21,-0.00,1.01,0.07,47.24
21,0.00,1.01,0.08,47.24
21,0.00,1.00,0.08,48.16
21,0.00,1.00,0.08,46.29
21,-0.00,1.00,0.08,46.29
21,0.00,1.00,0.08,41.13
21,0.00,1.00,0.09,39.36
21,0.00,1.00,0.09,39.36
21,0.01,1.01,0.07,41.81
21,0.01,1.00,0.08,41.96
21,-0.00,1.00,0.08,42.15
21,-0.00,1.00,0.08,42.15
21,-0.00,1.00,0.08,40.61
21,-0.00,1.00,0.08,44.18
21,0.01,1.01,0.08,44.18
22,-0.01,1.00,0.08,42.88
22,-0.01,1.00,0.08,42.88
22,0.00,1.00,0.08,41.12
22,0.00,1.00,0.08,40.89
22,-0.01,1.00,0.08,40.89
22,-0.00,1.01,0.08,43.94
22,-0.00,1.01,0.08,37.48
22,0.00,1.01,0.08,37.46
22,0.00,1.00,0.07,40.60
22,0.00,1.00,0.07,43.38
22,0.00,1.00,0.07,42.81
22,-0.01,1.01,0.08,42.81
22,-0.00,1.00,0.08,39.59
22,-0.00,1.00,0.07,39.87
22,0.00,1.00,0.07,39.87
22,0.00,1.00,0.07,41.93
22,0.00,1.00,0.07,42.47
22,-0.00,1.00,0.07,42.77
22,-0.00,1.00,0.08,42.77
22,-0.00,1.00,0.09,47.25
22,0.01,1.00,0.09,40.75
22,-0.00,1.00,0.08,40.75
22,-0.01,1.00,0.08,37.04
22,-0.01,1.00,0.07,39.06
22,-0.00,1.00,0.07,39.06
22,0.00,1.00,0.08,41.18
22,0.00,1.00,0.08,42.48
22,-0.00,1.00,0.08,42.48
22,0.00,1.00,0.08,42.53
22,0.00,1.00,0.08,42.37
22,0.00,1.00,0.08,42.22
22,0.01,1.00,0.09,42.22
22,0.01,0.99,0.09,38.99
22,0.01,0.99,0.07,39.25
22,-0.00,1.00,0.07,39.25
22,-0.06,1.00,0.08,40.68
22,0.00,1.00,0.07,42.25
22,-0.00,1.00,0.07,42.25
22,0.00,0.99,0.07,44.87
22,0.00,0.99,0.07,38.09
22,0.00,0.99,0.07,37.63
22,-0.00,0.99,0.08,39.19
22,-0.00,1.00,0.08,41.51
22,-0.01,1.00,0.08,40.84
22,-0.00,1.00,0.08,40.84
22,-0.06,1.00,0.08,35.98
22,0.00,1.00,0.08,38.39
22,0.00,0.99,0.08,38.39
22,-0.00,1.00,0.08,39.46
22,-0.00,1.00,0.08,38.24
22,-0.01,1.01,0.08,37.97
22,-0.00,1.00,0.08,41.10
22,-0.00,1.06,0.08,46.35
22,-0.00,0.99,0.08,40.59
22,-0.00,1.01,0.07,40.59
22,-0.00,1.00,0.09,38.97
22,-0.00,1.00,0.09,40.30
22,0.00,1.00,0.09,40.30
22,-0.01,1.00,0.09,39.13
22,-0.01,1.00,0.07,42.26
22,-0.01,1.00,0.07,42.26
22,-0.00,1.00,0.08,42.15
22,-0.00,0.94,0.08,43.52
22,0.00,1.00,0.08,43.71
22,-0.00,1.01,0.07,43.71
22,-0.00,1.00,0.08,40.51
22,-0.01,1.00,0.08,42.32
22,0.01,1.01,0.09,42.32
22,0.04,1.01,0.10,44.38
22,0.04,1.01,0.11,42.66
22,0.06,1.01,0.11,42.66
22,0.07,1.01,0.10,40.38
22,0.07,1.00,0.10,42.55
22,0.03,1.00,0.10,42.39
22,0.03,1.00,0.09,39.26
22,0.03,0.97,0.07,43.89
22,-0.02,0.97,0.07,39.79
22,-0.03,1.00,0.07,39.79
22,-0.02,1.00,0.06,43.40
22,-0.02,1.00,0.04,40.77
22,-0.02,1.01,0.04,40.77
22,-0.02,1.00,0.05,41.23
22,-0.02,1.00,0.05,37.66
22,-0.05,0.98,0.05,37.59
22,-0.04,1.00,0.06,41.50
22,-0.04,1.01,0.06,40.43
22,-0.02,1.01,0.06,39.12
22,-0.03,1.00,0.08,39.12
22,-0.03,1.01,0.09,38.48
22,-0.02,1.01,0.08,41.59
22,-0.02,1.01,0.08,41.59
22,-0.06,1.01,0.09,46.14
22,0.00,1.01,0.08,37.45
22,0.00,1.00,0.08,37.45
22,-0.00,1.01,0.08,40.61
22,-0.00,1.06,0.06,40.98
22,0.01,1.00,0.06,40.90
22,-0.01,0.98,0.06,40.12
22,-0.01,1.00,0.07,39.01
22,0.00,1.00,0.07,40.13
22,0.00,1.00,0.08,40.13
22,0.00,1.00,0.08,41.34
22,0.00,1.00,0.09,39.77
22,-0.01,1.01,0.09,39.77
22,-0.01,1.01,0.07,35.71
22,-0.01,1.01,0.08,41.98
22,-0.01,1.00,0.08,41.83
22,-0.02,1.01,0.09,41.83
22,-0.02,1.00,0.08,39.93
22,0.01,1.00,0.08,39.74
22,-0.00,0.99,0.07,39.74
22,-0.00,0.99,0.08,41.33
22,-0.01,0.99,0.07,38.68
22,0.01,0.99,0.07,38.68
22,0.01,1.01,0.09,42.87
22,0.01,1.01,0.08,39.58
22,0.00,1.01,0.08,39.58
22,-0.00,1.01,0.09,43.13
22,-0.00,1.00,0.10,42.03
22,-0.00,1.00,0.10,42.15
22,-0.01,1.00,0.10,36.67
22,-0.01,1.01,0.09,46.73
22,-0.01,1.01,0.09,40.87
22,-0.00,1.00,0.07,40.87
22,-0.00,0.99,0.07,39.71
22,-0.00,0.99,0.07,42.94
22,-0.00,1.00,0.07,42.94
22,0.00,1.00,0.06,38.53
22,0.00,1.00,0.07,39.04
22,0.01,1.00,0.07,38.79
22,0.01,1.00,0.07,39.58
22,0.01,1.01,0.08,50.81
22,0.00,1.01,0.08,43.33
22,-0.00,0.99,0.09,43.33
22,-0.06,1.00,0.09,42.63
22,0.00,1.00,0.09,43.22
22,-0.01,1.00,0.09,43.22
22,-0.00,1.00,0.08,39.61
22,-0.00,1.00,0.07,42.53
22,0.00,0.99,0.07,42.53
22,0.01,1.00,0.07,42.37
22,0.01,1.00,0.07,39.17
22,-0.01,1.00,0.07,42.09
22,-0.01,1.00,0.08,42.09
22,-0.01,1.00,0.08,38.28
22,-0.02,1.00,0.07,41.59
22,-0.02,1.00,0.07,41.59
22,-0.04,1.01,0.09,40.23
22,-0.04,1.01,0.08,39.29
22,-0.04,1.00,0.08,39.29
22,-0.02,1.01,0.07,36.81
22,-0.02,1.04,0.04,37.43
22,-0.00,0.98,0.04,37.44
22,0.03,0.98,0.03,39.79
22,0.03,0.98,0.05,37.31
22,0.03,0.98,0.05,41.85
22,0.04,1.00,0.08,41.85
22,0.04,1.02,0.10,39.30
22,0.04,1.02,0.06,42.67
22,0.03,1.02,0.13,42.67
22,0.01,1.02,0.13,43.33
22,0.01,1.02,0.12,42.03
22,-0.02,1.02,0.12,42.10
22,-0.04,1.02,0.10,41.31
22,-0.04,1.00,0.06,41.96
22,-0.04,1.00,0.06,38.28
22,-0.01,0.99,0.04,38.28
22,-0.01,0.98,0.04,44.49
22,-0.00,0.98,0.04,42.00
22,0.02,0.98,0.04,42.00
22,0.02,0.99,0.05,36.02
22,0.02,0.99,0.08,37.61
22,0.03,1.00,0.08,37.61
22,0.01,1.01,0.10,38.70
22,0.01,1.01,0.12,44.10
22,-0.01,1.01,0.12,43.86
22,-0.03,1.02,0.12,37.59
22,-0.03,1.02,0.11,40.71
22,-0.03,1.02,0.11,37.78
22,-0.02,1.01,0.09,37.78
22,-0.01,1.00,0.07,42.60
22,-0.01,1.00,0.12,40.18
22,0.01,0.99,0.05,40.18
22,0.02,0.98,0.05,38.30
22,0.02,1.00,0.05,42.47
22,0.03,1.00,0.05,42.61
22,0.01,0.99,0.05,41.83
22,0.01,1.00,0.08,42.54
22,-0.01,1.00,0.08,42.18
22,-0.02,1.00,0.10,42.18
22,-0.03,1.01,0.11,40.54
22,-0.03,1.01,0.11,41.63
22,-0.02,1.02,0.11,41.63
22,-0.01,1.02,0.11,38.99
22,-0.01,1.02,0.08,45.58
22,0.00,1.00,0.08,45.58
22,0.01,0.99,0.07,41.75
22,0.01,1.00,0.06,44.75
22,0.02,1.00,0.06,40.49
22,0.02,0.99,0.06,40.49
22,0.02,0.99,0.05,39.43
22,0.00,0.99,0.06,41.32
22,-0.00,1.00,0.06,41.32
22,-0.02,1.00,0.09,39.63
22,-0.02,1.00,0.09,41.47
22,-0.02,1.02,0.09,41.47
22,-0.01,1.02,0.10,40.68
22,-0.01,1.01,0.10,37.97
22,0.00,1.01,0.10,37.75
22,0.01,1.00,0.09,44.02
22,0.01,1.00,0.08,42.12
22,0.01,1.00,0.08,37.37
22,0.01,1.00,0.07,37.37
22,0.01,0.99,0.06,38.98
22,0.01,0.99,0.05,39.87
22,-0.00,0.99,0.05,39.87
22,-0.02,0.99,0.06,43.83
22,-0.02,0.99,0.08,44.59
22,-0.02,1.00,0.08,45.26
22,-0.02,1.00,0.08,43.69
22,-0.02,1.01,0.09,41.25
22,-0.00,1.01,0.09,46.56
22,0.01,1.01,0.10,46.56
22,0.01,1.00,0.10,41.71
22,0.01,1.00,0.09,42.22
22,0.01,1.00,0.09,42.22
22,0.01,1.00,0.08,40.37
22,0.01,1.00,0.07,39.47
22,-0.01,1.00,0.07,39.47
22,-0.02,1.00,0.06,40.27
22,-0.02,0.99,0.06,40.38
22,-0.01,0.99,0.06,40.20
22,-0.01,0.99,0.08,39.42
23,-0.00,1.00,0.09,41.62
23,-0.00,1.00,0.07,41.62
23,-0.00,1.00,0.06,41.25
23,-0.00,1.00,0.12,42.25
23,-0.01,1.00,0.06,42.25
23,-0.00,1.00,0.06,41.88
23,-0.00,1.00,0.07,43.62
23,0.00,0.99,0.07,43.62
23,0.01,1.00,0.08,39.03
23,0.01,0.94,0.09,44.25
23,0.01,1.00,0.09,44.40
23,0.00,1.00,0.09,45.97
23,0.00,1.01,0.10,38.07
23,-0.01,1.01,0.10,41.93
23,-0.01,1.00,0.09,41.93
23,-0.01,1.00,0.09,40.06
23,-0.01,1.00,0.08,41.20
23,-0.01,1.00,0.08,41.20
23,-0.01,0.99,0.06,40.24
23,-0.01,0.99,0.07,40.20
23,-0.00,0.99,0.07,40.35
23,0.01,1.00,0.06,43.49
23,0.01,0.99,0.07,45.66
23,0.01,0.99,0.07,41.03
23,0.01,1.00,0.09,41.03
23,0.00,1.00,0.08,40.36
23,0.00,1.00,0.09,42.49
23,-0.00,1.01,0.09,42.49
23,-0.01,1.00,0.09,39.70
23,-0.01,1.00,0.09,40.46
23,-0.01,1.00,0.09,40.46
23,-0.01,1.00,0.09,44.58
23,-0.01,0.99,0.08,41.75
23,-0.01,0.99,0.08,38.14
23,0.01,1.00,0.06,38.14
23,0.01,1.00,0.06,39.95
23,0.00,1.00,0.01,42.56
23,0.00,1.00,0.07,42.56
23,0.00,1.00,0.08,41.65
23,0.00,1.00,0.08,38.67
23,-0.00,1.00,0.08,38.67
23,-0.00,1.00,0.09,36.44
23,-0.00,1.01,0.10,43.46
23,-0.01,1.01,0.10,43.34
23,-0.00,1.01,0.08,38.64
23,-0.00,0.99,0.08,39.51
23,-0.00,0.99,0.08,42.94
23,-0.01,1.00,0.07,42.94
23,-0.06,1.00,0.07,37.73
23,0.00,1.00,0.07,46.81
23,0.00,1.00,0.07,46.81
23,0.01,1.01,0.07,41.92
23,0.01,1.01,0.07,39.65
23,0.00,1.00,0.07,39.14
23,-0.01,0.99,0.08,43.05
23,-0.01,0.94,0.08,42.08
23,-0.01,1.00,0.08,46.38
23,-0.01,1.01,0.09,46.38
23,-0.01,1.01,0.09,39.36
23,-0.01,1.01,0.08,41.87
23,-0.00,1.00,0.08,41.87
23,0.01,1.00,0.08,41.59
23,0.01,1.00,0.07,40.17
23,0.01,1.00,0.07,40.17
23,-0.01,1.00,0.08,38.36
23,-0.01,1.00,0.07,46.29
23,0.00,1.00,0.07,46.29
23,-0.01,0.99,0.08,46.29
23,-0.01,1.00,0.08,40.35
23,0.00,1.00,0.08,37.96
23,-0.02,1.00,0.09,37.96
23,-0.06,1.00,0.08,43.11
23,0.00,1.00,0.09,41.65
23,0.00,1.00,0.09,41.65
23,-0.00,1.00,0.09,41.82
23,-0.00,1.00,0.07,34.55
23,0.01,1.00,0.07,35.18
23,-0.01,1.01,0.08,39.88
23,-0.01,1.00,0.08,41.92
23,-0.01,1.00,0.08,38.52
23,-0.00,1.00,0.07,38.52
23,-0.00,1.01,0.07,42.73
23,-0.00,1.01,0.07,42.87
23,0.00,1.00,0.07,42.87
23,0.00,1.00,0.07,41.88
23,0.00,1.00,0.09,41.25
23,0.00,1.00,0.09,41.25
23,-0.01,1.01,0.08,41.39
23,-0.01,1.00,0.09,38.74
23,0.00,1.00,0.09,38.86
23,0.01,1.01,0.09,38.86
23,0.01,1.00,0.08,37.79
23,0.00,1.00,0.08,37.84
23,-0.01,1.00,0.08,37.84
23,-0.01,1.00,0.07,42.67
23,-0.01,1.00,0.07,39.87
23,0.00,1.00,0.07,39.87
23,0.01,0.99,0.07,45.14
23,0.01,0.99,0.09,43.02
23,0.00,0.99,0.09,43.13
23,0.01,1.01,0.08,42.35
23,0.01,1.00,0.09,38.16
23,-0.02,1.00,0.09,38.82
23,-0.02,1.00,0.09,38.82
23,-0.02,1.01,0.10,43.42
23,-0.02,1.01,0.08,41.99
23,-0.02,1.00,0.08,41.99
23,-0.01,1.00,0.08,40.97
23,-0.01,1.00,0.08,43.15
23,0.01,1.00,0.08,43.11
23,0.02,0.99,0.05,42.32
23,0.02,0.99,0.06,40.08
23,0.02,0.99,0.06,39.10
23,0.01,1.00,0.07,39.10
23,0.01,1.00,0.07,43.04
23,0.01,1.00,0.09,39.60
23,0.00,0.99,0.09,39.60
23,0.00,1.01,0.09,37.63
23,0.00,1.01,0.10,42.19
23,-0.01,1.02,0.10,42.19
23,-0.00,1.01,0.09,35.83
23,-0.00,1.06,0.09,37.82
23,0.00,1.00,0.09,38.28
23,0.00,0.99,0.08,42.98
23,0.00,0.99,0.07,41.58
23,0.02,0.99,0.07,36.99
1,-0.16,1.15,0.07,34.96
1,-0.16,0.92,0.09,40.68
1,0.04,0.92,0.09,39.01
1,0.15,0.84,0.09,39.01
1,0.15,1.07,0.12,40.70
1,-0.04,1.07,0.09,41.44
1,-0.18,1.18,0.09,41.44
1,-0.01,0.97,0.07,41.43
1,-0.01,0.97,0.10,43.02
1,0.15,0.82,0.10,43.12
1,0.04,1.00,0.11,39.98
1,0.04,1.00,0.09,43.28
1,-0.15,1.19,0.09,39.38
1,-0.07,1.03,0.05,39.38
1,-0.07,0.83,0.08,41.06
1,0.13,0.83,0.10,37.61
1,0.10,0.95,0.10,37.61
1,-0.14,1.17,0.10,41.17
1,-0.14,1.17,0.04,47.12
1,-0.13,1.04,0.04,47.12
1,0.07,0.85,0.07,41.79
1,0.07,0.83,0.09,42.66
1,0.13,0.89,0.09,42.37
1,-0.08,1.14,0.12,42.37
1,-0.08,1.14,0.07,43.78
1,-0.15,1.14,0.07,36.61
1,0.04,0.90,0.07,36.61
1,0.04,0.83,0.09,41.57
1,0.16,0.83,0.12,36.11
1,-0.03,1.07,0.12,36.11
1,-0.17,1.18,0.09,40.38
1,-0.17,1.15,0.06,41.83
1,-0.01,0.96,0.06,41.59
1,0.16,0.81,0.08,43.15
1,0.16,1.00,0.11,38.01
1,0.03,1.00,0.11,36.45
1,-0.15,1.18,0.08,36.45
1,-0.18,1.03,0.05,34.04
1,-0.06,1.03,0.01,40.65
1,0.14,0.83,0.07,40.65
1,0.10,0.93,0.09,40.58
1,0.10,0.93,0.12,39.24
1,-0.14,1.17,0.12,39.24
1,-0.12,1.08,0.07,40.45
1,-0.12,1.11,0.08,40.20
1,0.09,0.86,0.08,39.57
1,0.11,0.89,0.11,39.57
1,0.11,1.13,0.11,40.40
1,-0.10,1.13,0.07,42.24
1,-0.15,1.13,0.07,42.24
1,-0.16,0.90,0.07,35.40
1,0.03,0.90,0.09,37.20
1,0.15,0.84,0.09,37.20
1,-0.04,1.08,0.11,39.73
1,-0.04,1.09,0.08,33.84
1,-0.15,1.15,0.08,34.09
1,-0.01,0.95,0.06,45.06
1,-0.01,0.82,0.07,41.95
1,0.15,0.82,0.07,38.10
1,0.03,1.01,0.10,38.10
1,0.04,1.18,0.09,37.84
1,-0.14,1.18,0.12,38.23
1,-0.06,1.02,0.06,38.23
1,0.12,0.83,0.09,43.12
1,0.12,0.83,0.11,43.94
1,0.06,0.93,0.11,43.83
1,-0.13,1.17,0.11,41.48
1,-0.13,1.14,0.08,40.28
1,-0.12,1.08,0.08,43.46
1,0.09,0.87,0.09,43.46
1,0.09,0.90,0.10,41.79
1,0.12,0.90,0.12,42.27
1,-0.10,1.13,0.12,42.27
1,-0.15,1.13,0.08,38.11
1,-0.15,1.13,0.08,41.37
1,0.04,0.91,0.08,41.37
1,0.15,0.85,0.09,41.18
1,0.15,0.82,0.12,39.47
1,-0.03,1.07,0.12,39.76
1,-0.14,1.16,0.08,38.19
1,-0.14,0.96,0.06,39.83
1,-0.00,0.96,0.06,39.36
1,0.15,0.83,0.08,39.36
1,0.14,0.99,0.10,37.68
1,0.02,0.99,0.10,40.47
1,-0.15,1.17,0.10,40.47
1,-0.07,1.02,0.07,41.90
1,-0.07,1.04,0.08,45.00
1,0.13,0.85,0.08,44.69
1,0.08,0.95,0.11,43.13
1,0.08,1.16,0.10,39.10
1,-0.12,1.16,0.10,35.41
1,-0.10,1.07,0.07,35.41
1,-0.09,0.87,0.09,40.20
1,0.10,0.87,0.10,45.44
1,0.11,0.89,0.10,45.44
1,-0.09,1.12,0.10,40.26
1,-0.09,1.12,0.07,41.13
1,-0.14,1.11,0.07,41.39
1,0.03,0.91,0.07,36.69
1,0.03,0.93,0.10,40.83
1,0.13,0.87,0.10,40.10
1,-0.03,1.08,0.12,40.10
1,-0.03,1.15,0.09,40.57
1,-0.16,1.15,0.09,42.03
1,-0.02,0.97,0.09,42.03
1,-0.06,0.85,0.10,40.76
1,0.13,0.85,0.13,41.55
1,0.01,1.02,0.13,41.55
1,-0.15,1.16,0.10,40.04
1,-0.15,1.14,0.07,44.72
1,-0.06,1.02,0.07,45.07
1,0.14,0.84,0.08,40.37
1,0.14,0.95,0.12,46.02
1,0.08,0.95,0.12,40.71
1,-0.11,1.15,0.11,40.71
1,-0.11,1.03,0.05,41.82
1,-0.11,1.03,0.01,42.51
1,0.06,0.86,0.07,42.51
1,0.14,0.94,0.10,43.07
1,0.14,0.94,0.11,38.68
1,-0.06,1.16,0.11,38.49
1,-0.15,1.08,0.04,40.06
1,-0.15,1.11,0.04,37.98
1,-0.00,0.86,0.04,36.68
1,0.11,0.88,0.10,36.68
1,0.11,1.11,0.12,39.29
1,-0.04,1.11,0.09,42.78
1,-0.16,1.16,0.09,42.78
1,-0.01,0.95,0.07,37.34
1,-0.01,0.95,0.09,37.52
1,0.14,0.83,0.09,37.52
1,0.02,1.02,0.12,40.30
1,0.02,1.05,0.09,37.71
1,-0.15,1.17,0.09,37.59
1,-0.06,1.02,0.08,47.00
1,-0.06,0.85,0.09,40.30
1,0.13,0.85,0.09,44.94
1,0.08,0.96,0.11,44.94
1,0.07,1.16,0.10,43.59
1,-0.12,1.16,0.06,42.57
1,-0.09,1.07,0.06,42.57
1,0.09,0.86,0.06,43.85
1,0.09,0.83,0.08,42.00
1,0.10,0.89,0.08,41.58
1,-0.09,1.13,0.10,40.80
1,-0.09,1.12,0.06,40.54
1,-0.15,1.12,0.06,39.91
1,0.03,0.91,0.07,39.91
1,0.00,0.86,0.11,42.81
1,0.13,0.86,0.07,40.53
1,-0.04,1.09,0.14,40.53
1,-0.12,1.16,0.09,38.38
1,-0.12,1.16,0.06,40.02
1,0.02,0.94,0.06,40.54
1,0.15,0.83,0.07,40.54
1,0.15,0.83,0.10,41.38
1,0.03,1.02,0.10,39.36
1,-0.14,1.17,0.08,39.36
1,-0.14,1.01,0.06,42.74
1,-0.06,1.01,0.03,38.71
1,0.10,0.84,0.09,38.71
1,0.11,0.96,0.12,42.32
1,0.05,0.96,0.11,35.48
1,-0.13,1.16,0.11,35.48
1,-0.11,1.07,0.08,38.40
1,-0.11,1.12,0.10,35.44
1,0.08,0.87,0.10,35.88
1,0.10,0.91,0.10,43.72
1,0.10,1.13,0.10,43.51
1,-0.08,1.13,0.10,41.11
1,-0.12,1.11,0.07,41.11
1,-0.08,0.88,0.06,41.81
1,0.05,0.88,0.02,44.65
1,0.14,0.85,0.08,44.65
1,-0.00,1.09,0.11,43.59
1,-0.00,1.09,0.08,40.67
1,-0.13,1.16,0.08,40.76
1,-0.02,0.95,0.06,42.33
1,-0.02,0.96,0.08,37.44
1,0.13,0.83,0.08,46.01
1,0.03,1.03,0.11,46.01
1,0.03,1.16,0.08,39.08
1,-0.14,1.16,0.12,39.99
1,-0.08,1.00,0.05,39.99
1,0.11,0.84,0.07,37.45
1,0.11,0.84,0.10,36.56
1,0.07,0.96,0.10,36.56
1,-0.11,1.17,0.10,38.73
1,-0.11,1.18,0.07,39.13
1,-0.10,1.06,0.07,39.21
1,0.08,0.87,0.08,44.69
1,0.08,0.91,0.10,44.68
1,0.11,0.91,0.10,39.01
1,-0.08,1.13,0.11,39.01
1,-0.07,1.10,0.07,43.20
1,-0.14,1.10,0.09,35.98
1,0.03,0.91,0.09,35.98
1,0.13,0.87,0.10,40.05
1,0.13,0.83,0.12,41.51
1,-0.02,1.08,0.12,41.77
1,-0.15,1.14,0.09,40.99
1,-0.15,0.96,0.09,40.99
1,-0.01,0.96,0.09,36.95
1,0.13,0.85,0.09,36.95
1,0.14,1.02,0.12,43.42
1,0.02,1.02,0.09,42.39
1,-0.13,1.15,0.09,42.39
1,-0.06,1.01,0.07,45.02
1,-0.06,1.01,0.08,36.65
1,0.12,0.85,0.08,36.65
1,0.07,0.96,0.12,48.82
1,0.07,0.96,0.11,45.26
1,-0.11,1.15,0.11,38.13
1,-0.09,1.06,0.07,38.13
1,-0.09,0.87,0.08,40.07
1,0.08,0.87,0.10,45.98
1,0.09,0.91,0.10,45.98
1,0.10,1.11,0.10,42.48
1,-0.09,1.11,0.07,46.50
1,-0.12,1.11,0.07,46.50
1,0.03,0.91,0.08,36.10
1,0.03,0.94,0.09,40.58
1,0.12,0.87,0.09,40.04
1,-0.05,1.07,0.12,42.39
2,-0.04,1.02,0.06,38.00
2,0.11,0.86,0.08,39.27
2,0.11,0.83,0.10,40.56
2,0.07,0.95,0.10,39.65
2,-0.11,1.14,0.10,39.65
2,-0.11,1.07,0.06,40.91
2,-0.08,1.07,0.09,43.70
2,0.09,0.88,0.09,43.70
2,0.09,0.92,0.11,46.17
2,0.09,0.92,0.11,40.24
2,-0.09,1.11,0.11,40.24
2,-0.13,1.10,0.09,42.84
2,-0.13,1.11,0.08,44.02
2,0.02,0.92,0.08,44.42
2,0.09,0.89,0.10,43.64
2,0.09,1.07,0.12,39.48
2,-0.05,1.07,0.12,39.30
2,-0.14,1.13,0.10,39.30
2,-0.13,0.97,0.08,41.95
2,-0.00,0.97,0.09,41.93
2,0.13,0.87,0.09,41.93
2,0.02,1.02,0.11,37.56
2,0.02,1.02,0.09,39.53
2,-0.12,1.15,0.09,39.40
2,-0.04,1.01,0.07,40.18
2,-0.04,0.85,0.08,44.55
2,0.13,0.85,0.08,40.99
2,0.07,0.96,0.10,40.99
2,0.08,1.13,0.08,38.45
2,-0.11,1.13,0.12,39.84
2,-0.08,1.04,0.06,39.84
2,0.08,0.87,0.07,44.73
2,0.08,0.87,0.08,41.75
2,0.08,0.91,0.08,41.75
2,-0.10,1.11,0.10,39.80
2,-0.10,1.09,0.08,42.55
2,-0.13,1.09,0.08,42.66
2,0.03,0.91,0.08,40.31
2,0.03,0.88,0.11,43.76
2,0.13,0.88,0.11,40.52
2,-0.02,1.08,0.13,40.52
2,-0.04,1.13,0.09,36.12
2,-0.11,1.13,0.08,42.46
2,0.02,0.96,0.08,42.46
2,0.13,0.85,0.09,38.51
2,0.13,0.84,0.11,44.42
2,0.01,1.03,0.11,44.43
2,-0.13,1.15,0.09,37.38
2,-0.13,1.01,0.06,44.56
2,-0.04,1.01,0.06,38.07
2,0.08,0.87,0.10,38.07
2,0.06,0.99,0.12,37.40
2,0.06,0.99,0.10,42.48
2,-0.10,1.15,0.10,42.48
2,-0.10,1.02,0.07,39.49
2,-0.10,1.02,0.07,37.27
2,0.05,0.85,0.07,37.27
2,0.10,0.94,0.09,42.75
2,0.10,0.95,0.11,39.23
2,-0.05,1.14,0.11,42.79
2,-0.11,1.08,0.06,42.79
2,-0.11,0.88,0.07,36.60
2,0.02,0.88,0.09,40.03
2,0.12,0.89,0.09,40.03
2,0.12,1.11,0.12,44.73
2,-0.01,1.11,0.08,39.46
2,-0.13,1.12,0.08,39.46
2,-0.02,0.92,0.06,44.02
2,-0.02,0.91,0.08,40.80
2,0.09,0.85,0.08,41.01
2,0.02,1.05,0.11,44.14
2,0.02,1.15,0.09,45.43
2,-0.13,1.15,0.09,40.14
2,-0.06,0.98,0.06,40.14
2,-0.04,0.84,0.07,41.27
2,0.08,0.84,0.11,34.64
2,0.05,0.98,0.11,34.64
2,-0.12,1.17,0.11,38.89
2,-0.12,1.17,0.07,34.87
2,-0.10,1.05,0.07,35.06
2,0.06,0.86,0.09,39.76
2,0.06,0.85,0.10,38.80
2,0.10,0.91,0.10,46.96
2,-0.06,1.13,0.11,46.96
2,-0.06,1.08,0.07,42.05
2,-0.10,1.08,0.08,40.84
2,0.04,0.89,0.08,40.84
2,0.13,0.88,0.09,38.52
2,0.13,0.88,0.10,33.19
2,-0.04,1.09,0.10,33.19
2,-0.14,1.13,0.08,35.07
2,-0.14,1.13,0.08,37.28
2,-0.02,0.95,0.08,37.12
2,0.10,0.85,0.09,38.69
2,0.10,1.03,0.11,40.33
2,0.01,1.03,0.11,40.02
2,-0.12,1.16,0.10,40.02
2,-0.11,1.00,0.08,39.93
2,-0.05,1.00,0.09,40.06
2,0.10,0.86,0.09,40.06
2,0.06,0.98,0.11,39.88
2,0.06,0.96,0.09,38.92
2,-0.10,1.15,0.09,38.69
2,-0.09,1.06,0.08,43.39
2,-0.09,0.88,0.07,42.44
2,0.08,0.88,0.07,44.90
2,0.09,0.93,0.09,44.90
2,0.12,1.13,0.11,48.65
2,-0.07,1.13,0.07,40.56
2,-0.11,1.10,0.07,40.56
2,0.04,0.91,0.07,47.15
2,0.04,0.91,0.08,42.48
2,0.10,0.89,0.08,42.99
2,-0.04,1.09,0.10,40.64
2,-0.04,1.12,0.08,45.04
2,-0.12,1.12,0.08,36.56
2,-0.00,0.94,0.07,36.56
2,-0.00,0.87,0.09,41.28
2,0.11,0.87,0.11,37.11
2,0.00,1.04,0.11,37.11
2,0.02,1.15,0.09,40.08
2,-0.11,1.15,0.08,40.45
2,-0.04,0.99,0.08,40.45
2,0.10,0.87,0.10,37.52
2,0.10,0.87,0.10,40.72
2,0.04,0.99,0.10,40.84
2,-0.11,1.15,0.09,40.06
2,-0.11,1.04,0.06,40.06
2,-0.09,1.04,0.06,43.76
2,0.07,0.86,0.06,43.76
2,0.06,0.96,0.10,40.54
2,0.13,0.96,0.12,41.51
2,-0.07,1.17,0.12,41.51
2,-0.14,1.04,0.04,40.89
2,-0.14,1.04,0.05,40.02
2,0.02,0.84,0.05,40.10
2,0.15,0.94,0.10,40.10
2,0.15,0.96,0.11,42.31
2,-0.06,1.15,0.11,40.72
2,-0.20,1.12,0.08,40.72
2,-0.20,0.86,0.04,41.99
2,-0.06,0.86,0.02,38.17
2,0.14,0.86,0.08,38.17
2,0.06,1.09,0.14,43.28
2,0.06,1.09,0.09,40.44
2,-0.11,1.16,0.09,40.44
2,-0.07,0.91,0.05,43.95
2,-0.07,0.90,0.08,41.66
2,0.11,0.83,0.08,42.09
2,0.09,0.99,0.12,42.09
2,0.09,1.16,0.11,42.60
2,-0.11,1.16,0.11,44.38
2,-0.11,1.04,0.08,44.38
2,-0.07,0.88,0.08,43.46
2,0.05,0.88,0.10,41.64
2,0.09,0.95,0.10,41.64
2,-0.06,1.13,0.12,38.29
2,-0.06,1.13,0.07,43.56
2,-0.11,1.07,0.07,43.41
2,0.03,0.90,0.08,44.98
2,0.03,0.91,0.09,44.46
2,0.11,0.91,0.09,40.77
2,-0.03,1.09,0.11,40.77
2,-0.06,1.12,0.07,39.79
2,-0.13,1.12,0.11,39.81
2,-0.01,0.90,0.05,39.81
2,0.14,0.86,0.07,39.37
2,0.14,0.86,0.11,41.67
2,0.04,1.09,0.11,42.13
2,-0.15,1.12,0.09,43.69
2,-0.15,1.10,0.04,39.22
2,-0.08,0.91,0.04,40.84
2,0.14,0.86,0.08,40.84
2,0.14,1.04,0.12,40.57
2,0.09,1.04,0.11,36.24
2,-0.12,1.17,0.11,36.24
2,-0.11,1.05,0.08,40.98
2,-0.11,1.05,0.08,40.14
2,0.06,0.87,0.08,40.14
2,0.09,0.94,0.10,38.26
2,0.09,0.99,0.10,40.55
2,-0.08,1.12,0.10,40.04
2,-0.11,1.08,0.08,40.04
2,-0.11,0.91,0.08,40.88
2,0.02,0.91,0.08,40.81
2,0.10,0.90,0.09,40.81
2,0.11,1.09,0.10,43.87
2,-0.02,1.09,0.08,38.82
2,-0.12,1.10,0.08,38.82
2,-0.00,0.94,0.08,36.35
2,-0.00,0.94,0.08,42.34
2,0.12,0.87,0.08,42.33
2,0.02,1.03,0.11,39.98
2,0.02,1.00,0.09,42.52
2,-0.12,1.13,0.09,41.91
2,-0.05,0.99,0.07,41.91
2,-0.05,0.87,0.08,40.97
2,0.09,0.87,0.10,42.84
2,0.04,0.98,0.10,42.84
2,-0.10,1.14,0.09,43.44
2,-0.10,1.14,0.06,49.46
2,-0.08,1.04,0.06,49.46
2,0.08,0.89,0.07,35.82
2,0.08,0.93,0.11,36.36
2,0.08,0.93,0.11,36.19
2,-0.08,1.11,0.11,41.67
2,-0.08,1.08,0.07,40.27
2,-0.10,1.08,0.07,39.53
2,0.03,0.92,0.09,39.53
2,0.04,0.91,0.10,40.85
2,0.10,0.91,0.11,44.17
2,-0.04,1.07,0.11,44.17
2,-0.13,1.11,0.09,37.05
2,-0.13,1.08,0.08,43.58
2,0.01,0.95,0.08,43.26
2,0.11,0.89,0.08,43.26
2,0.11,1.03,0.09,44.87
2,0.01,1.03,0.09,44.86
2,-0.11,1.12,0.08,44.86
2,-0.10,1.00,0.08,38.21
2,-0.04,1.00,0.08,39.70
2,0.10,0.88,0.08,39.70
2,0.04,0.97,0.10,40.52
2,0.04,0.97,0.09,40.13
2,-0.11,1.12,0.09,40.48
2,-0.07,1.04,0.07,42.83
2,-0.07,1.01,0.08,39.23
2,0.08,0.89,0.08,39.56
2,0.08,0.93,0.10,39.56
2,0.08,1.10,0.10,40.02
2,-0.07,1.10,0.08,41.51
2,-0.10,1.08,0.08,41.51
2,-0.09,0.92,0.07,37.37
3,0.01,1.03,0.11,41.47
3,0.01,1.11,0.10,40.55
3,-0.12,1.11,0.08,37.71
3,-0.03,0.99,0.08,37.71
3,0.10,0.88,0.08,41.07
3,0.10,0.88,0.09,37.89
3,0.03,0.97,0.09,37.89
3,-0.11,1.12,0.10,41.11
3,-0.11,1.10,0.07,39.80
3,-0.08,1.04,0.07,37.40
3,0.08,0.89,0.08,37.40
3,0.08,0.95,0.09,36.43
3,0.07,0.95,0.10,40.76
3,-0.08,1.10,0.10,40.76
3,-0.10,1.08,0.06,45.32
3,-0.10,1.08,0.07,42.07
3,0.05,0.92,0.07,42.07
3,0.09,0.90,0.10,37.05
3,0.09,0.89,0.10,37.74
3,-0.05,1.08,0.10,38.17
3,-0.11,1.10,0.09,45.22
3,-0.11,0.95,0.09,45.81
3,0.01,0.95,0.09,42.29
3,0.11,0.90,0.09,42.29
3,0.06,1.04,0.11,40.36
3,0.00,1.04,0.08,37.21
3,-0.12,1.11,0.08,37.21
3,-0.03,1.00,0.07,44.73
3,-0.03,1.00,0.08,42.95
3,0.10,0.89,0.08,42.77
3,0.05,0.98,0.10,44.33
3,0.05,0.99,0.09,40.97
3,-0.11,1.12,0.09,41.03
3,-0.06,1.03,0.08,41.03
3,-0.06,0.90,0.09,39.41
3,0.08,0.90,0.10,41.24
3,0.07,0.95,0.10,41.24
3,0.11,1.10,0.09,41.93
3,-0.07,1.10,0.06,39.74
3,-0.09,1.07,0.06,39.74
3,0.04,0.92,0.07,43.90
3,0.04,0.90,0.09,43.53
3,0.10,0.90,0.09,43.21
3,-0.04,1.07,0.10,40.86
3,-0.04,1.09,0.08,41.44
3,-0.11,1.09,0.08,37.94
3,-0.00,0.95,0.09,37.94
3,-0.02,0.90,0.08,39.37
3,0.10,0.90,0.10,38.37
3,-0.00,1.02,0.10,38.37
3,-0.12,1.10,0.09,40.96
3,-0.12,1.12,0.07,39.61
3,-0.03,1.00,0.07,39.72
3,0.10,0.89,0.10,37.37
3,0.10,0.98,0.11,45.70
3,0.04,0.98,0.11,38.38
3,-0.10,1.10,0.10,38.38
3,-0.12,1.04,0.08,39.76
3,-0.06,1.04,0.09,44.43
3,0.08,0.90,0.09,44.43
3,0.07,0.95,0.10,38.90
3,0.07,0.95,0.10,36.47
3,-0.08,1.09,0.10,36.47
3,-0.10,1.07,0.06,43.53
3,-0.10,1.11,0.08,35.40
3,0.04,0.92,0.08,44.41
3,0.08,0.91,0.08,44.41
3,0.08,1.06,0.10,44.73
3,-0.06,1.06,0.09,42.62
3,-0.10,1.10,0.09,42.62
3,-0.10,0.96,0.09,44.39
3,0.02,0.96,0.10,46.49
3,0.11,0.90,0.10,46.49
3,0.00,1.02,0.11,43.52
3,0.00,1.05,0.09,37.41
3,-0.11,1.11,0.09,37.47
3,-0.03,0.99,0.08,39.82
3,-0.03,0.89,0.09,41.55
3,0.10,0.89,0.09,39.16
3,0.04,0.99,0.10,39.16
3,0.03,1.11,0.09,35.81
3,-0.10,1.11,0.07,39.36
3,-0.06,1.03,0.07,39.36
3,0.07,0.90,0.08,41.28
3,0.07,0.90,0.10,39.57
3,0.08,0.96,0.10,39.87
3,-0.07,1.09,0.09,39.09
3,-0.07,1.11,0.07,39.96
3,-0.10,1.05,0.07,41.24
3,0.04,0.92,0.08,41.24
3,0.04,0.92,0.09,36.03
3,0.09,0.92,0.10,45.57
3,-0.04,1.06,0.10,45.57
3,-0.06,1.10,0.09,44.60
3,-0.12,1.10,0.08,39.72
3,0.01,0.96,0.08,39.72
3,0.09,0.90,0.10,40.96
3,0.09,0.91,0.11,41.37
3,-0.02,1.04,0.11,41.16
3,-0.11,1.12,0.09,39.60
3,-0.11,1.00,0.09,40.81
3,-0.02,1.00,0.09,40.84
3,0.10,0.90,0.09,40.84
3,0.09,0.98,0.10,43.89
3,0.03,0.98,0.09,35.29
3,-0.09,1.11,0.09,35.29
3,-0.05,1.03,0.08,35.77
3,-0.05,1.03,0.09,37.16
3,0.08,0.90,0.09,37.33
3,0.08,0.95,0.10,38.11
3,0.08,1.10,0.10,37.44
3,-0.08,1.10,0.10,40.97
3,-0.10,1.04,0.06,40.97
3,-0.11,0.91,0.08,40.16
3,0.02,0.91,0.09,40.22
3,0.08,0.92,0.09,40.22
3,-0.04,1.07,0.09,38.28
3,-0.04,1.07,0.08,43.17
3,-0.10,1.09,0.08,43.17
3,0.01,0.96,0.08,37.61
3,0.01,0.95,0.10,41.18
3,0.09,0.89,0.10,41.27
3,0.01,1.04,0.11,41.27
3,0.01,1.10,0.08,42.06
3,-0.11,1.10,0.07,45.21
3,-0.03,0.99,0.07,45.21
3,-0.04,0.90,0.09,34.32
3,0.09,0.90,0.10,44.35
3,0.04,0.99,0.10,44.35
3,-0.09,1.12,0.09,38.78
3,-0.09,1.09,0.06,42.03
3,-0.06,1.02,0.06,41.63
3,0.07,0.90,0.08,46.33
3,0.07,0.96,0.09,39.16
3,0.07,0.96,0.09,37.44
3,-0.08,1.09,0.09,37.44
3,-0.10,1.06,0.07,36.56
3,-0.10,1.06,0.08,42.29
3,0.04,0.92,0.08,42.29
3,0.08,0.92,0.10,40.65
3,0.08,0.92,0.10,43.72
3,-0.04,1.07,0.10,43.11
3,-0.10,1.08,0.08,39.19
3,-0.10,1.08,0.07,41.96
3,0.00,0.95,0.07,37.00
3,0.09,0.92,0.09,37.00
3,0.09,1.04,0.10,40.18
3,-0.02,1.04,0.08,39.50
3,-0.11,1.09,0.08,39.50
3,-0.10,0.98,0.09,39.81
3,-0.03,0.98,0.10,41.51
3,0.08,0.91,0.10,41.51
3,0.04,1.02,0.12,40.29
3,0.04,1.03,0.09,41.36
3,-0.09,1.10,0.09,41.27
3,-0.07,1.00,0.07,36.57
3,-0.07,0.90,0.09,42.52
3,0.06,0.90,0.09,44.32
3,0.07,0.96,0.10,44.32
3,0.07,1.10,0.10,38.24
3,-0.06,1.10,0.08,46.29
3,-0.09,1.04,0.08,46.29
3,0.04,0.92,0.07,37.00
3,0.04,0.92,0.09,41.50
3,0.10,0.93,0.09,41.46
3,-0.03,1.08,0.09,46.16
3,-0.03,1.08,0.08,40.91
3,-0.10,1.08,0.08,43.36
3,0.01,0.93,0.07,43.36
3,0.04,0.91,0.10,44.91
3,0.10,0.91,0.11,41.59
3,0.01,1.04,0.11,41.59
3,-0.10,1.09,0.08,40.04
3,-0.10,1.09,0.07,36.65
3,-0.03,0.98,0.07,36.65
3,0.09,0.91,0.09,36.47
3,0.09,0.94,0.10,38.85
3,0.04,1.00,0.10,38.41
3,-0.09,1.11,0.09,37.62
3,-0.09,1.02,0.08,41.21
3,-0.06,1.02,0.10,39.48
3,0.07,0.91,0.10,39.48
3,0.07,0.97,0.11,42.32
3,0.07,0.97,0.09,44.46
3,-0.07,1.10,0.09,44.46
3,-0.09,1.05,0.08,43.82
3,-0.09,1.05,0.10,37.61
3,0.04,0.92,0.10,37.72
3,0.07,0.93,0.09,41.63
3,0.07,1.06,0.09,40.16
3,-0.04,1.06,0.09,42.28
3,-0.09,1.07,0.08,42.28
3,-0.11,0.95,0.09,36.14
3,0.02,0.95,0.10,39.17
3,0.10,0.92,0.10,39.17
3,-0.01,1.03,0.10,42.15
3,-0.01,1.03,0.08,43.19
3,-0.11,1.10,0.08,43.69
3,-0.02,1.00,0.07,39.78
3,-0.02,0.97,0.09,42.33
3,0.09,0.91,0.09,35.23
3,0.02,1.00,0.09,35.23
3,0.02,1.10,0.09,39.13
3,-0.10,1.10,0.08,37.04
3,-0.06,1.02,0.08,37.04
3,0.06,0.91,0.09,41.48
3,0.06,0.91,0.10,39.72
3,0.05,0.97,0.10,39.72
3,-0.07,1.08,0.09,40.09
3,-0.07,1.11,0.07,36.62
3,-0.08,1.05,0.07,36.47
3,0.05,0.93,0.08,34.12
3,0.05,0.92,0.08,41.02
3,0.08,0.92,0.08,40.61
3,-0.04,1.06,0.09,40.61
3,-0.02,1.08,0.08,37.43
3,-0.09,1.08,0.09,41.01
3,0.02,0.96,0.09,41.01
3,0.10,0.91,0.10,39.23
3,0.10,0.91,0.10,38.17
3,-0.01,1.03,0.10,38.12
3,-0.10,1.09,0.09,44.39
3,-0.10,0.99,0.09,39.96
3,-0.02,0.99,0.09,38.20
3,0.08,0.90,0.09,38.20
3,0.09,0.99,0.10,39.73
3,0.02,0.99,0.09,36.32
3,-0.09,1.09,0.09,36.32
3,-0.05,1.03,0.07,41.68
3,-0.05,1.03,0.08,36.37
3,0.06,0.92,0.08,36.37
3,0.04,0.96,0.10,39.88
3,0.04,0.97,0.08,36.63
4,0.02,0.96,0.08,40.47
4,0.02,0.96,0.09,40.21
4,0.09,0.91,0.09,40.21
4,-0.01,1.04,0.11,36.42
4,-0.01,1.03,0.09,36.15
4,-0.10,1.09,0.09,40.98
4,-0.02,0.99,0.08,40.98
4,-0.02,0.91,0.10,43.71
4,0.09,0.91,0.11,47.52
4,0.02,1.00,0.11,47.52
4,0.04,1.10,0.09,43.99
4,-0.09,1.10,0.09,42.49
4,-0.05,1.02,0.09,42.49
4,0.06,0.92,0.08,44.07
4,0.06,0.91,0.11,36.35
4,0.04,0.97,0.11,36.24
4,-0.09,1.08,0.09,44.08
4,-0.09,1.04,0.07,39.84
4,-0.07,1.04,0.07,40.77
4,0.04,0.93,0.08,40.77
4,0.02,0.94,0.10,41.79
4,0.08,0.94,0.09,45.19
4,-0.03,1.06,0.09,45.19
4,-0.09,1.07,0.07,40.02
4,-0.09,1.07,0.08,37.29
4,0.02,0.95,0.08,37.02
4,0.08,0.92,0.09,40.15
4,0.08,0.91,0.10,42.97
4,-0.01,1.03,0.10,45.35
4,-0.09,1.09,0.08,45.35
4,-0.09,0.98,0.08,44.61
4,-0.02,0.98,0.09,47.67
4,0.08,0.91,0.09,47.67
4,0.07,0.99,0.09,41.27
4,0.01,0.99,0.09,43.52
4,-0.10,1.08,0.09,43.52
4,-0.05,1.02,0.08,45.42
4,-0.05,1.05,0.09,38.55
4,0.07,0.92,0.09,39.05
4,0.03,0.96,0.10,37.48
4,0.03,1.08,0.10,41.18
4,-0.07,1.08,0.10,35.73
4,-0.07,1.04,0.07,35.73
4,-0.08,0.95,0.09,41.96
4,0.05,0.95,0.09,38.92
4,0.07,0.94,0.09,38.92
4,-0.04,1.06,0.10,39.46
4,-0.04,1.06,0.08,35.81
4,-0.09,1.06,0.08,35.62
4,0.03,0.95,0.09,39.54
4,0.03,0.99,0.09,40.04
4,0.09,0.93,0.09,36.62
4,-0.01,1.03,0.10,36.62
4,-0.03,1.09,0.08,42.28
4,-0.10,1.09,0.08,43.00
4,-0.03,0.99,0.08,43.00
4,0.08,0.92,0.08,34.16
4,0.08,0.92,0.10,38.32
4,0.01,0.99,0.10,38.32
4,-0.09,1.09,0.08,39.89
4,-0.09,1.08,0.08,40.61
4,-0.03,1.02,0.08,40.28
4,0.08,0.92,0.09,44.20
4,0.08,0.97,0.09,41.97
4,0.06,0.97,0.09,44.55
4,-0.07,1.07,0.10,44.55
4,-0.07,1.03,0.09,44.27
4,-0.07,1.03,0.09,36.21
4,0.05,0.93,0.09,36.21
4,0.06,0.94,0.09,36.65
4,0.06,0.99,0.10,40.62
4,-0.05,1.06,0.10,39.91
4,-0.09,1.06,0.08,40.69
4,-0.09,0.96,0.09,36.81
4,0.02,0.96,0.09,40.65
4,0.08,0.94,0.09,40.65
4,0.11,1.03,0.10,39.19
4,-0.02,1.03,0.08,40.38
4,-0.09,1.08,0.08,40.38
4,-0.02,0.99,0.08,36.97
4,-0.02,0.99,0.10,37.15
4,0.07,0.91,0.10,36.88
4,-0.00,0.99,0.10,39.24
4,-0.00,0.96,0.08,43.26
4,-0.08,1.09,0.08,38.66
4,-0.04,1.02,0.07,38.66
4,-0.04,0.91,0.08,40.39
4,0.06,0.91,0.10,46.88
4,0.04,0.98,0.10,46.88
4,0.06,1.08,0.08,42.48
4,-0.07,1.08,0.08,42.45
4,-0.08,1.05,0.08,42.45
4,0.05,0.95,0.08,40.40
4,0.05,0.94,0.09,39.84
4,0.06,0.94,0.09,39.61
4,-0.05,1.06,0.10,46.66
4,-0.05,1.06,0.09,40.05
4,-0.08,1.06,0.09,39.55
4,0.02,0.96,0.08,39.55
4,0.01,0.93,0.09,41.85
4,0.08,0.93,0.10,43.82
4,-0.01,1.04,0.10,43.82
4,-0.09,1.08,0.08,40.30
4,-0.09,1.08,0.07,38.48
4,-0.01,0.99,0.07,38.88
4,0.08,0.93,0.10,37.31
4,0.08,0.88,0.10,42.52
4,0.02,1.01,0.10,49.67
4,-0.09,1.08,0.08,49.67
4,-0.10,1.01,0.08,36.55
4,-0.04,1.01,0.08,43.23
4,0.06,0.91,0.08,43.23
4,0.04,0.96,0.09,38.93
4,0.04,0.96,0.09,41.51
4,-0.07,1.07,0.09,41.51
4,-0.06,1.04,0.09,42.55
4,-0.06,1.00,0.08,40.83
4,0.06,0.94,0.08,41.02
4,0.06,0.94,0.11,39.45
4,0.06,1.07,0.10,41.00
4,-0.05,1.07,0.08,39.17
4,-0.08,1.06,0.08,39.17
4,-0.11,0.96,0.07,40.82
4,0.02,0.96,0.10,37.16
4,0.07,0.93,0.10,37.16
4,-0.03,1.03,0.10,42.55
4,-0.03,1.02,0.08,39.02
4,-0.09,1.08,0.08,38.50
4,-0.01,0.98,0.08,45.55
4,-0.01,0.92,0.10,42.09
4,0.08,0.92,0.10,37.02
4,0.02,1.00,0.10,37.02
4,0.03,1.07,0.08,37.11
4,-0.09,1.07,0.07,37.25
4,-0.05,1.01,0.07,37.25
4,0.08,0.94,0.08,46.55
4,0.08,0.94,0.10,40.59
4,0.03,0.97,0.10,40.47
4,-0.07,1.08,0.09,44.38
4,-0.07,1.09,0.09,41.58
4,-0.07,1.03,0.09,43.21
4,0.04,0.93,0.09,43.21
4,0.04,0.95,0.09,47.36
4,0.06,0.95,0.09,37.79
4,-0.05,1.05,0.09,37.79
4,-0.02,1.06,0.08,40.70
4,-0.08,1.06,0.08,37.74
4,0.02,0.96,0.08,37.74
4,0.07,0.93,0.09,39.30
4,0.07,0.91,0.09,39.05
4,-0.02,1.03,0.09,38.69
4,-0.09,1.07,0.10,43.39
4,-0.09,0.99,0.09,37.88
4,-0.00,0.99,0.09,38.12
4,0.08,0.93,0.10,38.12
4,0.07,1.00,0.10,40.81
4,0.01,1.00,0.09,48.37
4,-0.08,1.08,0.09,48.37
4,-0.04,1.01,0.09,37.01
4,-0.04,1.01,0.09,41.67
4,0.06,0.93,0.09,41.96
4,0.03,0.98,0.09,39.61
4,0.03,1.08,0.09,38.86
4,-0.08,1.08,0.09,41.46
4,-0.06,1.04,0.08,41.46
4,-0.02,0.95,0.07,36.51
4,0.05,0.95,0.10,40.45
4,0.06,0.95,0.10,40.45
4,-0.05,1.06,0.10,38.12
4,-0.05,1.06,0.09,41.89
4,-0.06,1.06,0.09,41.89
4,0.03,0.96,0.08,34.89
4,0.03,0.94,0.10,38.55
4,0.07,0.94,0.10,38.32
4,-0.03,1.03,0.09,44.58
4,-0.03,1.08,0.09,41.37
4,-0.09,1.08,0.09,35.33
4,-0.01,0.99,0.08,35.33
4,-0.05,0.93,0.09,42.34
4,0.08,0.93,0.09,40.45
4,-0.00,1.00,0.09,40.45
4,-0.09,1.07,0.10,44.25
4,-0.09,1.08,0.09,40.62
4,-0.03,1.01,0.09,40.52
4,0.07,0.92,0.08,42.87
4,0.07,0.97,0.09,40.68
4,0.05,0.97,0.09,42.47
4,-0.08,1.07,0.08,42.47
4,-0.12,1.03,0.09,39.06
4,-0.06,1.03,0.08,39.30
4,0.05,0.95,0.08,39.30
4,0.04,0.96,0.10,41.22
4,0.04,0.96,0.10,42.47
4,-0.06,1.06,0.10,42.90
4,-0.07,1.06,0.09,40.55
4,-0.07,1.09,0.09,40.46
4,0.03,0.96,0.09,41.42
4,0.07,0.94,0.10,41.42
4,0.07,1.03,0.10,44.54
4,-0.02,1.03,0.08,37.80
4,-0.08,1.07,0.08,37.80
4,-0.12,0.99,0.07,42.27
4,0.00,0.99,0.08,37.69
4,0.08,0.93,0.08,37.69
4,-0.00,1.00,0.09,41.27
4,-0.00,1.01,0.08,42.29
4,-0.09,1.07,0.08,42.86
4,-0.05,1.01,0.08,39.73
4,-0.05,0.93,0.08,40.59
4,0.06,0.93,0.08,45.70
4,0.02,0.98,0.09,45.70
4,0.06,1.07,0.09,42.41
4,-0.07,1.07,0.08,40.24
4,-0.04,1.04,0.08,40.24
4,0.05,0.94,0.08,46.85
4,0.05,0.94,0.10,41.21
4,0.06,0.95,0.10,41.40
4,-0.05,1.06,0.09,42.18
4,-0.05,1.05,0.07,38.06
4,-0.08,1.05,0.07,40.54
4,0.01,0.95,0.08,40.54
4,0.06,0.93,0.09,41.51
4,0.06,0.93,0.09,45.13
4,-0.03,1.02,0.09,45.13
4,-0.08,1.07,0.08,46.61
4,-0.08,1.07,0.08,39.13
4,-0.00,0.99,0.08,39.13
4,0.07,0.92,0.10,40.70
4,0.07,0.88,0.11,41.60
4,0.01,1.00,0.11,42.56
4,-0.08,1.08,0.08,42.56
4,-0.08,1.02,0.09,39.22
4,-0.03,1.02,0.09,41.42
5,0.05,0.98,0.10,38.56
5,-0.05,1.05,0.10,40.44
5,-0.07,1.05,0.08,40.44
5,-0.07,0.96,0.08,46.77
5,0.02,0.96,0.09,43.43
5,0.06,0.93,0.09,43.43
5,0.04,1.03,0.09,43.57
5,-0.02,1.03,0.09,44.52
5,-0.09,1.07,0.09,44.52
5,-0.01,0.98,0.09,39.06
5,-0.01,0.99,0.09,40.74
5,0.06,0.93,0.09,41.31
5,0.00,1.00,0.10,38.96
5,0.00,1.08,0.09,37.38
5,-0.08,1.08,0.09,41.67
5,-0.03,1.01,0.08,41.67
5,-0.06,0.93,0.09,42.52
5,0.06,0.93,0.09,38.88
5,0.04,0.98,0.09,38.88
5,-0.07,1.07,0.10,40.48
5,-0.07,1.07,0.08,38.49
5,-0.05,1.04,0.08,38.83
5,0.04,0.93,0.09,39.61
5,0.04,0.89,0.09,39.84
5,0.05,0.95,0.09,40.06
5,-0.05,1.06,0.08,40.06
5,-0.00,1.05,0.08,39.40
5,-0.07,1.05,0.09,44.25
5,0.03,0.97,0.09,44.25
5,0.07,0.94,0.10,37.26
5,0.07,0.94,0.10,40.61
5,-0.01,1.04,0.10,40.61
5,-0.08,1.07,0.09,42.22
5,-0.08,1.10,0.08,44.15
5,0.00,0.98,0.08,42.06
5,0.07,0.92,0.08,42.06
5,0.07,1.02,0.10,40.04
5,0.02,1.02,0.08,41.50
5,-0.07,1.06,0.08,41.50
5,-0.10,0.98,0.07,38.76
5,-0.04,0.98,0.09,39.87
5,0.04,0.92,0.09,39.87
5,0.02,0.99,0.10,37.11
5,0.02,0.95,0.09,45.44
5,-0.06,1.07,0.09,45.74
5,-0.06,1.03,0.08,39.47
5,-0.06,0.94,0.08,43.93
5,0.04,0.94,0.08,41.77
5,0.06,0.96,0.09,41.77
5,0.02,1.05,0.09,40.69
5,-0.04,1.05,0.09,38.78
5,-0.07,1.05,0.09,38.78
5,0.02,0.96,0.10,44.08
5,0.02,0.96,0.10,41.18
5,0.07,0.95,0.10,40.69
5,-0.02,1.03,0.10,39.91
5,-0.02,1.00,0.09,39.95
5,-0.07,1.07,0.09,37.20
5,0.01,0.98,0.08,37.20
5,0.01,0.93,0.09,35.30
5,0.07,0.93,0.09,38.55
5,-0.00,1.01,0.09,38.55
5,-0.07,1.07,0.08,44.37
5,-0.07,1.07,0.07,45.32
5,-0.04,1.00,0.07,45.32
5,0.04,0.94,0.09,43.23
5,0.04,0.94,0.10,39.37
5,0.04,1.00,0.10,39.48
5,-0.06,1.07,0.08,45.75
5,-0.06,1.03,0.07,38.45
5,-0.05,1.03,0.07,39.74
5,0.05,0.94,0.08,39.74
5,0.04,0.96,0.09,41.68
5,0.04,0.96,0.09,42.83
5,-0.05,1.06,0.09,42.83
5,-0.06,1.04,0.08,41.43
5,-0.06,1.04,0.09,40.11
5,0.02,0.97,0.09,40.28
5,0.06,0.95,0.09,41.06
5,0.06,0.97,0.09,39.76
5,-0.02,1.03,0.09,40.60
5,-0.08,1.06,0.08,40.60
5,-0.13,0.99,0.08,41.66
5,0.00,0.99,0.09,40.26
5,0.07,0.93,0.09,40.26
5,-0.00,1.01,0.10,39.28
5,-0.00,1.01,0.09,42.20
5,-0.07,1.07,0.09,42.20
5,-0.03,1.00,0.08,37.03
5,-0.03,1.06,0.09,40.49
5,0.05,0.93,0.09,39.91
5,0.02,0.99,0.10,42.26
5,0.02,1.07,0.09,41.92
5,-0.07,1.07,0.09,40.01
5,-0.05,1.03,0.08,40.01
5,-0.02,0.94,0.08,38.29
5,0.04,0.94,0.10,43.45
5,0.04,0.97,0.10,43.45
5,-0.05,1.06,0.10,40.51
5,-0.05,1.04,0.08,38.40
5,-0.06,1.04,0.08,38.56
5,0.02,0.96,0.09,39.35
5,0.02,0.95,0.08,42.98
5,0.05,0.95,0.08,40.98
5,-0.02,1.03,0.10,40.98
5,-0.01,1.06,0.08,40.23
5,-0.07,1.06,0.09,40.18
5,0.00,0.97,0.09,40.18
5,0.06,0.94,0.08,39.88
5,0.06,0.94,0.09,44.98
5,-0.00,1.01,0.09,44.65
5,-0.08,1.06,0.08,40.73
5,-0.08,1.06,0.08,43.79
5,-0.04,0.99,0.08,40.71
5,0.06,0.94,0.10,40.71
5,0.06,0.98,0.10,50.07
5,0.02,0.98,0.09,41.10
5,-0.07,1.07,0.09,41.10
5,-0.10,1.03,0.09,44.59
5,-0.04,1.03,0.10,38.14
5,0.04,0.95,0.10,38.14
5,0.04,0.96,0.10,40.14
5,0.04,0.99,0.10,44.38
5,-0.04,1.05,0.10,44.21
5,-0.06,1.04,0.09,38.73
5,-0.06,0.97,0.09,38.71
5,0.03,0.97,0.09,38.82
5,0.06,0.95,0.10,38.82
5,0.05,1.03,0.09,43.06
5,-0.02,1.03,0.08,47.08
5,-0.07,1.06,0.08,47.08
5,-0.00,0.98,0.07,38.58
5,-0.00,0.98,0.08,46.45
5,0.06,0.94,0.08,46.81
5,-0.02,1.01,0.09,43.67
5,-0.02,1.05,0.08,45.54
5,-0.08,1.05,0.08,41.30
5,-0.02,1.00,0.08,41.30
5,-0.01,0.94,0.09,38.71
5,0.06,0.94,0.10,42.11
5,0.03,0.98,0.10,42.11
5,-0.05,1.06,0.09,41.06
5,-0.05,1.06,0.09,36.55
5,-0.05,1.02,0.09,36.55
5,0.05,0.94,0.09,43.90
5,0.05,0.97,0.10,44.86
5,0.03,0.97,0.10,44.73
5,-0.06,1.06,0.10,40.03
5,-0.06,1.04,0.09,39.21
5,-0.07,1.04,0.09,41.85
5,0.03,0.96,0.08,41.85
5,0.00,0.95,0.09,37.94
5,0.07,0.95,0.09,40.39
5,-0.03,1.03,0.09,40.39
5,-0.08,1.05,0.08,37.74
5,-0.08,1.05,0.07,42.50
5,-0.00,0.98,0.07,42.26
5,0.06,0.94,0.09,41.47
5,0.06,1.01,0.09,37.77
5,-0.00,1.01,0.09,47.29
5,-0.08,1.06,0.08,47.29
5,-0.08,1.01,0.08,41.31
5,-0.02,1.01,0.09,41.99
5,0.06,0.94,0.09,41.99
5,0.03,0.99,0.09,45.42
5,0.03,0.99,0.09,40.77
5,-0.06,1.06,0.09,40.91
5,-0.04,1.03,0.08,40.91
5,-0.04,1.01,0.10,41.24
5,0.04,0.94,0.10,40.91
5,0.04,0.97,0.11,40.91
5,0.04,1.05,0.11,40.39
5,-0.05,1.05,0.10,39.01
5,-0.06,1.05,0.10,39.01
5,-0.04,0.96,0.09,39.33
5,0.02,0.96,0.10,38.08
5,0.05,0.95,0.10,38.08
5,-0.03,1.03,0.10,39.16
5,-0.03,1.06,0.08,43.93
5,-0.07,1.06,0.08,43.97
5,0.00,0.97,0.09,45.54
5,0.00,0.94,0.08,38.27
5,0.07,0.94,0.08,39.77
5,-0.01,1.01,0.09,39.77
5,-0.01,1.07,0.08,38.71
5,-0.07,1.07,0.09,38.53
5,-0.03,1.00,0.09,38.53
5,0.04,0.94,0.09,41.86
5,0.04,0.94,0.10,44.76
5,0.02,1.00,0.10,45.31
5,-0.07,1.05,0.10,44.53
5,-0.07,1.02,0.08,48.31
5,-0.03,1.02,0.08,38.59
5,0.05,0.95,0.10,38.59
5,0.04,0.96,0.09,41.59
5,0.04,0.96,0.09,40.66
5,-0.05,1.06,0.09,40.66
5,-0.06,1.04,0.08,41.50
5,-0.06,1.04,0.09,42.49
5,0.02,0.95,0.09,42.49
5,0.05,0.96,0.08,41.91
5,0.05,0.97,0.08,37.97
5,-0.02,1.03,0.08,37.75
5,-0.06,1.05,0.08,40.10
5,-0.06,0.98,0.08,48.86
5,0.01,0.98,0.08,42.81
5,0.06,0.95,0.08,42.81
5,0.12,1.01,0.10,39.75
5,-0.01,1.01,0.08,43.19
5,-0.08,1.06,0.08,43.19
5,-0.02,1.01,0.08,38.84
5,-0.02,1.01,0.08,41.85
5,0.05,0.94,0.08,41.97
5,0.02,0.99,0.09,39.62
5,0.02,1.05,0.10,41.68
5,-0.07,1.05,0.10,44.55
5,-0.05,1.03,0.09,44.55
5,-0.02,0.95,0.09,43.53
5,0.04,0.95,0.10,45.32
5,0.03,0.97,0.10,45.32
5,-0.05,1.05,0.10,36.08
5,-0.05,1.05,0.08,39.24
5,-0.06,1.04,0.08,39.24
5,0.03,0.96,0.09,39.39
5,0.03,0.95,0.08,38.14
5,0.05,0.95,0.08,37.00
5,-0.03,1.04,0.09,37.00
5,-0.03,1.05,0.07,36.83
5,-0.07,1.05,0.08,39.26
5,0.01,0.98,0.08,39.26
5,0.06,0.94,0.08,42.98
5,0.06,0.94,0.09,37.71
5,-0.01,1.01,0.09,37.71
6,-0.03,1.02,0.10,44.06
6,0.04,0.95,0.10,44.06
6,0.04,0.98,0.10,43.83
6,0.04,0.98,0.09,36.40
6,-0.06,1.05,0.09,36.66
6,-0.06,1.04,0.09,35.88
6,-0.06,1.03,0.08,42.10
6,0.02,0.97,0.08,37.50
6,0.05,0.96,0.10,37.50
6,0.05,1.04,0.09,41.15
6,-0.03,1.04,0.08,42.95
6,-0.07,1.05,0.08,42.95
6,-0.12,0.97,0.08,41.64
6,0.01,0.97,0.08,42.39
6,0.06,0.94,0.08,42.39
6,-0.00,1.01,0.10,38.72
6,-0.00,1.05,0.08,40.57
6,-0.07,1.05,0.08,40.56
6,-0.03,1.00,0.08,38.21
6,-0.03,0.95,0.09,37.50
6,0.05,0.95,0.09,39.44
6,0.02,0.99,0.10,39.44
6,0.01,1.06,0.08,37.84
6,-0.05,1.06,0.09,40.03
6,-0.04,1.02,0.09,40.03
6,0.05,0.95,0.08,42.67
6,0.05,0.95,0.10,38.34
6,0.04,0.98,0.10,38.51
6,-0.05,1.05,0.09,43.21
6,-0.05,1.04,0.07,36.52
6,-0.05,1.04,0.07,40.06
6,0.03,0.96,0.08,40.06
6,0.03,0.95,0.09,40.86
6,0.04,0.95,0.08,43.73
6,-0.03,1.03,0.08,43.73
6,-0.07,1.05,0.08,36.65
6,-0.07,1.05,0.08,38.72
6,0.01,0.98,0.08,38.72
6,0.05,0.95,0.09,42.25
6,0.05,0.95,0.11,45.55
6,-0.02,1.02,0.11,45.48
6,-0.06,1.06,0.08,39.99
6,-0.06,1.00,0.10,42.41
6,-0.02,1.00,0.10,37.29
6,0.04,0.94,0.09,37.29
6,0.00,0.99,0.10,38.67
6,0.00,0.99,0.10,38.58
6,-0.06,1.05,0.10,38.58
6,-0.04,1.02,0.09,45.24
6,-0.04,1.03,0.08,37.97
6,0.05,0.96,0.08,37.60
6,0.04,0.97,0.10,39.95
6,0.04,1.05,0.09,39.51
6,-0.04,1.05,0.09,41.45
6,-0.06,1.03,0.08,41.45
6,-0.04,0.95,0.08,40.41
6,0.03,0.95,0.09,42.85
6,0.05,0.95,0.09,42.85
6,-0.03,1.03,0.09,42.76
6,-0.03,1.03,0.08,39.87
6,-0.07,1.05,0.08,39.87
6,-0.00,0.98,0.08,42.73
6,-0.00,0.95,0.09,41.42
6,0.06,0.95,0.09,46.37
6,-0.02,1.02,0.11,46.37
6,-0.02,1.05,0.08,42.15
6,-0.06,1.05,0.08,44.98
6,-0.02,1.00,0.08,44.98
6,-0.01,0.95,0.09,40.98
6,0.05,0.95,0.10,44.07
6,0.00,0.99,0.10,44.07
6,-0.06,1.05,0.09,41.90
6,-0.06,1.02,0.08,39.91
6,-0.04,1.02,0.08,40.43
6,0.04,0.95,0.09,44.34
6,0.04,0.98,0.10,39.73
6,0.04,0.98,0.10,42.01
6,-0.05,1.04,0.09,42.01
6,-0.05,1.04,0.08,43.68
6,-0.05,1.04,0.09,44.53
6,0.03,0.97,0.09,44.53
6,0.05,0.96,0.09,40.90
6,0.05,0.96,0.10,44.98
6,-0.04,1.03,0.10,44.60
6,-0.06,1.05,0.09,39.11
6,-0.06,1.04,0.09,36.58
6,0.00,0.98,0.09,40.90
6,0.04,0.95,0.09,40.90
6,0.04,1.01,0.09,37.60
6,-0.00,1.01,0.08,43.02
6,-0.06,1.05,0.08,43.02
6,-0.07,0.99,0.08,41.25
6,-0.01,0.99,0.09,45.04
6,0.05,0.94,0.09,45.04
6,0.01,0.99,0.09,39.33
6,0.01,0.94,0.08,36.53
6,-0.05,1.06,0.08,36.37
6,-0.03,1.02,0.07,43.42
6,-0.03,0.95,0.09,45.08
6,0.04,0.95,0.09,43.80
6,0.03,0.98,0.10,43.80
6,0.01,1.05,0.10,40.38
6,-0.05,1.05,0.08,45.21
6,-0.06,1.03,0.08,45.21
6,0.03,0.96,0.09,41.89
6,0.03,0.96,0.10,47.15
6,0.04,0.96,0.10,47.16
6,-0.03,1.03,0.09,44.03
6,-0.03,1.04,0.08,40.42
6,-0.07,1.04,0.08,40.43
6,-0.00,0.98,0.09,40.43
6,-0.02,0.96,0.09,42.01
6,0.05,0.96,0.09,42.14
6,-0.02,1.01,0.09,42.14
6,-0.06,1.05,0.08,38.83
6,-0.06,1.05,0.08,41.34
6,-0.01,0.99,0.08,41.34
6,0.05,0.95,0.09,37.64
6,0.05,1.00,0.09,39.95
6,0.01,1.00,0.09,44.57
6,-0.07,1.05,0.09,44.57
6,-0.07,1.02,0.09,40.35
6,-0.03,1.02,0.10,39.17
6,0.05,0.96,0.10,39.17
6,0.04,0.98,0.10,36.07
6,0.04,0.98,0.09,43.06
6,-0.04,1.04,0.09,43.06
6,-0.05,1.03,0.07,43.15
6,-0.05,1.02,0.08,37.30
6,0.03,0.96,0.08,37.16
6,0.05,0.96,0.08,38.73
6,0.05,1.03,0.08,38.91
6,-0.03,1.03,0.08,40.48
6,-0.07,1.04,0.09,40.48
6,-0.06,0.97,0.09,39.77
6,-0.00,0.97,0.10,41.85
6,0.04,0.96,0.10,41.85
6,-0.01,1.02,0.10,44.11
6,-0.01,1.02,0.09,42.74
6,-0.06,1.04,0.09,42.71
6,-0.01,1.00,0.08,40.36
6,-0.01,0.95,0.09,39.91
6,0.05,0.95,0.09,42.42
6,0.01,1.00,0.09,42.42
6,0.01,1.05,0.09,35.51
6,-0.06,1.05,0.09,38.90
6,-0.03,1.01,0.09,38.90
6,0.04,0.95,0.09,41.87
6,0.04,0.95,0.09,35.86
6,0.03,0.98,0.09,35.86
6,-0.04,1.04,0.09,39.06
6,-0.04,1.03,0.07,38.91
6,-0.05,1.03,0.07,39.00
6,0.02,0.97,0.08,40.57
6,0.02,0.96,0.10,40.65
6,0.04,0.96,0.10,40.40
6,-0.04,1.03,0.09,40.40
6,-0.00,1.04,0.08,39.28
6,-0.06,1.04,0.08,47.71
6,0.01,0.98,0.08,47.71
6,0.05,0.95,0.10,44.04
6,0.05,0.95,0.09,41.85
6,-0.02,1.01,0.09,41.91
6,-0.06,1.04,0.08,37.99
6,-0.06,0.99,0.09,36.30
6,-0.01,0.99,0.09,38.68
6,0.07,0.96,0.10,38.68
6,0.09,1.01,0.09,40.74
6,0.03,1.01,0.09,38.64
6,-0.05,1.04,0.09,38.64
6,-0.02,1.00,0.08,40.56
6,-0.02,1.00,0.09,41.50
6,0.04,0.95,0.09,41.50
6,0.03,0.98,0.09,38.96
6,0.03,0.98,0.08,38.27
6,-0.05,1.04,0.08,37.64
6,-0.05,1.02,0.08,39.21
6,-0.05,0.97,0.09,42.79
6,0.03,0.97,0.10,38.37
6,0.03,0.96,0.10,38.37
6,0.02,1.03,0.10,40.23
6,-0.04,1.03,0.09,35.24
6,-0.05,1.03,0.09,35.24
6,0.01,0.97,0.09,35.34
6,0.01,0.95,0.09,41.41
6,0.05,0.95,0.09,40.68
6,-0.01,1.02,0.09,44.59
6,-0.01,1.05,0.08,38.77
6,-0.07,1.05,0.08,41.09
6,-0.00,1.00,0.09,41.09
6,-0.02,0.95,0.09,38.18
6,0.04,0.95,0.09,39.49
6,0.01,1.00,0.09,39.49
6,-0.06,1.05,0.08,37.78
6,-0.06,1.05,0.08,41.21
6,-0.02,1.01,0.08,40.83
6,0.04,0.95,0.08,43.18
6,0.04,0.98,0.08,41.24
6,0.03,0.98,0.08,39.24
6,-0.05,1.04,0.08,39.24
6,-0.05,1.02,0.08,41.78
6,-0.04,1.02,0.09,37.77
6,0.03,0.97,0.09,37.77
6,0.04,0.97,0.09,38.60
6,0.04,0.97,0.09,40.75
6,-0.05,1.04,0.09,40.75
6,-0.06,1.04,0.09,35.73
6,-0.06,1.05,0.09,39.98
6,0.01,0.99,0.09,39.92
6,0.04,0.96,0.10,42.27
6,0.04,1.02,0.11,42.20
6,-0.02,1.02,0.11,40.07
6,-0.06,1.05,0.09,40.07
6,-0.00,0.99,0.09,43.74
6,-0.00,0.99,0.10,37.67
6,0.05,0.96,0.10,37.67
6,0.01,1.00,0.10,41.04
6,0.01,1.04,0.08,41.12
6,-0.06,1.04,0.08,40.84
6,-0.02,1.01,0.08,43.19
6,-0.02,0.96,0.08,42.44
6,0.04,0.96,0.08,41.57
6,0.03,0.97,0.08,41.57
6,0.01,1.04,0.08,41.18
6,-0.05,1.04,0.07,45.94
6,-0.05,1.02,0.07,45.94
6,0.02,0.96,0.08,41.89
6,0.02,0.96,0.09,44.80
6,0.03,0.97,0.09,44.80
6,-0.03,1.03,0.10,47.60
6,-0.03,1.03,0.10,39.11
6,-0.06,1.03,0.10,41.85
6,0.01,0.98,0.09,41.85
7,-0.00,1.00,0.11,41.18
7,-0.05,1.05,0.10,40.39
7,-0.05,1.01,0.08,45.93
7,-0.02,1.01,0.08,40.82
7,0.05,0.95,0.08,40.82
7,0.02,0.98,0.08,41.08
7,0.02,0.98,0.09,37.89
7,-0.06,1.03,0.09,37.89
7,-0.04,1.02,0.08,44.86
7,-0.04,1.03,0.07,39.65
7,0.03,0.97,0.07,39.63
7,0.03,0.98,0.09,38.07
7,0.03,1.03,0.09,43.02
7,-0.03,1.03,0.09,45.77
7,-0.05,1.04,0.07,45.77
7,-0.05,0.97,0.08,39.56
7,0.01,0.97,0.09,40.80
7,0.05,0.96,0.09,40.80
7,-0.01,1.01,0.09,46.33
7,-0.01,1.01,0.08,41.36
7,-0.06,1.05,0.08,41.42
7,-0.01,0.98,0.09,43.77
7,-0.01,0.96,0.09,41.58
7,0.04,0.96,0.09,38.04
7,-0.00,1.00,0.10,38.04
7,-0.00,1.05,0.08,46.52
7,-0.05,1.05,0.08,40.69
7,-0.02,1.01,0.08,40.69
7,-0.02,0.96,0.09,38.38
7,0.05,0.96,0.10,38.82
7,0.02,0.98,0.10,38.82
7,-0.06,1.04,0.09,39.17
7,-0.06,1.03,0.08,39.99
7,-0.05,1.03,0.08,40.21
7,0.01,0.97,0.09,34.73
7,0.01,0.97,0.09,39.79
7,0.03,0.97,0.09,40.52
7,-0.04,1.03,0.09,40.52
7,-0.04,1.03,0.08,46.09
7,-0.04,1.03,0.08,43.17
7,0.02,0.97,0.08,43.17
7,0.05,0.97,0.09,41.09
7,0.05,0.97,0.08,39.34
7,-0.01,1.02,0.08,39.56
7,-0.06,1.05,0.08,45.83
7,-0.06,1.05,0.07,39.64
7,0.00,0.99,0.07,41.67
7,0.03,0.95,0.08,41.67
7,0.06,1.00,0.09,41.82
7,-0.00,1.00,0.08,39.38
7,-0.06,1.04,0.08,39.38
7,-0.02,1.01,0.08,40.95
7,-0.02,1.01,0.08,36.60
7,0.05,0.96,0.08,36.60
7,0.02,0.97,0.10,40.03
7,0.02,0.98,0.08,39.47
7,-0.04,1.04,0.08,39.21
7,-0.04,1.03,0.09,43.13
7,-0.04,0.97,0.08,41.43
7,0.03,0.97,0.08,39.94
7,0.03,0.96,0.09,39.94
7,0.03,1.03,0.09,48.93
7,-0.04,1.03,0.09,42.02
7,-0.05,1.02,0.09,42.02
7,0.02,0.97,0.08,37.59
7,0.02,0.96,0.09,42.23
7,0.04,0.96,0.09,41.63
7,-0.02,1.01,0.09,43.20
7,-0.02,1.04,0.09,45.75
7,-0.06,1.04,0.09,42.84
7,-0.01,1.00,0.09,42.84
7,-0.02,0.96,0.09,41.98
7,0.04,0.96,0.10,41.04
7,0.00,1.00,0.10,41.04
7,-0.05,1.04,0.09,42.39
7,-0.05,1.04,0.11,41.34
7,-0.02,1.01,0.11,40.84
7,0.03,0.96,0.09,39.28
7,0.03,0.98,0.08,44.99
7,0.01,0.98,0.08,41.71
7,-0.06,1.04,0.09,41.71
7,-0.06,1.02,0.09,41.44
7,-0.04,1.02,0.08,37.71
7,0.03,0.97,0.08,37.71
7,0.04,0.98,0.09,39.11
7,0.04,0.98,0.09,39.87
7,-0.03,1.04,0.09,39.87
7,-0.05,1.03,0.09,43.00
7,-0.05,1.03,0.09,43.24
7,0.01,0.97,0.09,43.22
7,0.04,0.97,0.09,39.30
7,0.04,1.01,0.09,41.71
7,-0.01,1.01,0.09,45.94
7,-0.05,1.04,0.08,45.94
7,-0.01,0.99,0.08,42.13
7,-0.01,0.99,0.10,38.36
7,0.05,0.97,0.10,38.36
7,0.00,1.01,0.10,40.54
7,0.00,1.01,0.08,42.70
7,-0.05,1.04,0.08,42.79
7,-0.02,1.00,0.08,39.66
7,-0.02,1.02,0.09,41.90
7,0.04,0.96,0.09,45.88
7,0.01,0.99,0.10,45.88
7,0.01,1.04,0.09,41.97
7,-0.05,1.04,0.08,39.72
7,-0.04,1.02,0.08,39.72
7,0.04,0.97,0.09,39.95
7,0.04,0.97,0.11,39.62
7,0.03,0.98,0.11,39.62
7,-0.03,1.03,0.10,42.09
7,-0.03,1.02,0.08,43.17
7,-0.05,1.02,0.08,43.60
7,0.02,0.97,0.09,39.69
7,0.02,0.96,0.09,40.92
7,0.04,0.96,0.09,40.49
7,-0.01,1.02,0.09,40.49
7,-0.05,1.03,0.08,41.64
7,-0.05,1.03,0.09,39.65
7,-0.01,0.99,0.09,39.65
7,0.04,0.96,0.09,44.69
7,0.04,0.94,0.09,38.54
7,0.00,1.00,0.09,38.47
7,-0.05,1.04,0.09,43.96
7,-0.05,1.00,0.09,43.38
7,-0.03,1.00,0.09,41.38
7,0.04,0.97,0.09,41.38
7,0.01,1.00,0.10,43.12
7,0.01,1.00,0.09,44.17
7,-0.04,1.03,0.09,44.17
7,-0.04,1.01,0.08,44.74
7,-0.04,1.01,0.09,45.07
7,0.04,0.97,0.09,45.03
7,0.05,0.98,0.09,41.89
7,0.05,0.96,0.09,39.01
7,-0.03,1.02,0.09,39.42
7,-0.06,1.03,0.08,39.42
7,-0.06,0.97,0.10,39.37
7,0.01,0.97,0.08,34.62
7,0.03,0.96,0.08,34.62
7,0.04,1.02,0.09,36.83
7,-0.02,1.02,0.08,44.37
7,-0.06,1.03,0.08,44.37
7,0.00,0.99,0.08,36.77
7,0.00,0.97,0.09,43.94
7,0.05,0.97,0.09,44.01
7,0.00,1.01,0.10,40.09
7,0.00,1.03,0.09,45.84
7,-0.05,1.03,0.09,38.13
7,-0.03,0.99,0.08,38.13
7,-0.02,0.95,0.09,36.37
7,0.04,0.95,0.10,40.69
7,0.02,1.00,0.10,40.69
7,-0.04,1.04,0.10,39.79
7,-0.04,1.04,0.08,41.45
7,-0.04,1.01,0.08,41.83
7,0.03,0.97,0.09,40.26
7,0.03,0.97,0.09,37.96
7,0.03,0.97,0.09,40.20
7,-0.03,1.03,0.08,40.20
7,-0.04,1.02,0.08,40.14
7,-0.04,1.02,0.09,40.34
7,0.01,0.97,0.09,40.34
7,0.03,0.96,0.09,36.04
7,0.03,0.96,0.09,37.73
7,-0.02,1.01,0.09,37.73
7,-0.06,1.04,0.08,39.16
7,-0.06,1.05,0.08,42.18
7,0.00,0.99,0.08,41.49
7,0.05,0.96,0.08,44.62
7,0.05,1.00,0.09,41.26
7,-0.00,1.00,0.09,43.08
7,-0.05,1.04,0.08,43.08
7,-0.02,1.01,0.08,43.62
7,-0.02,1.01,0.09,39.67
7,0.03,0.97,0.09,39.67
7,0.00,1.00,0.11,44.54
7,0.00,0.97,0.10,39.30
7,-0.04,1.03,0.10,39.40
7,-0.04,1.02,0.08,40.97
7,-0.04,0.96,0.09,44.68
7,0.03,0.96,0.09,39.01
7,0.04,0.98,0.09,39.01
7,0.03,1.03,0.07,37.39
7,-0.03,1.03,0.08,40.60
7,-0.05,1.02,0.08,40.60
7,0.01,0.97,0.08,39.58
7,0.01,0.97,0.08,45.18
7,0.04,0.97,0.08,44.83
7,-0.01,1.02,0.09,40.92
7,-0.01,1.04,0.08,42.75
7,-0.05,1.04,0.08,43.73
7,-0.00,0.99,0.09,43.73
7,-0.03,0.97,0.10,42.55
7,0.04,0.97,0.09,41.74
7,0.00,1.00,0.09,41.74
7,-0.05,1.04,0.09,39.46
7,-0.05,1.04,0.09,43.12
7,-0.02,1.00,0.09,43.12
7,0.03,0.97,0.09,41.55
7,0.03,1.00,0.10,39.83
7,0.02,1.00,0.10,43.50
7,-0.04,1.04,0.09,43.50
7,-0.04,1.01,0.09,40.92
7,-0.03,1.01,0.09,41.74
7,0.03,0.97,0.09,41.74
7,0.03,0.98,0.09,37.61
7,0.03,0.98,0.08,42.69
7,-0.02,1.03,0.08,42.69
7,-0.04,1.02,0.08,45.14
7,-0.04,1.04,0.08,36.11
7,0.00,0.97,0.08,36.55
7,0.02,0.96,0.09,40.47
7,0.02,1.02,0.09,39.73
7,-0.03,1.02,0.09,38.31
7,-0.05,1.03,0.08,38.31
7,-0.00,0.99,0.07,39.34
7,-0.00,0.99,0.09,38.10
7,0.04,0.96,0.09,38.10
7,-0.01,1.01,0.09,41.83
7,-0.01,1.04,0.09,37.94
7,-0.04,1.04,0.09,38.20
7,-0.02,1.00,0.10,38.98
7,-0.02,0.97,0.10,37.86
7,0.04,0.97,0.10,42.43
7,0.01,1.00,0.11,42.43
7,0.02,1.04,0.09,39.10
7,-0.04,1.04,0.10,41.80
7,-0.04,1.01,0.10,41.80
7,0.03,0.96,0.09,46.26
7,0.03,0.96,0.09,40.30
7,0.03,0.98,0.09,40.34
7,-0.02,1.03,0.10,43.47
8,-0.01,0.98,0.07,43.56
8,0.03,0.96,0.09,41.43
8,0.03,0.95,0.10,39.38
8,0.00,1.01,0.10,41.82
8,-0.05,1.04,0.09,41.82
8,-0.05,1.01,0.08,39.66
8,-0.00,1.01,0.09,43.60
8,0.04,0.96,0.09,43.60
8,0.01,1.00,0.10,39.98
8,0.01,1.00,0.09,43.74
8,-0.05,1.03,0.09,43.74
8,-0.03,1.02,0.09,37.89
8,-0.03,1.03,0.09,37.15
8,0.03,0.96,0.09,36.94
8,0.02,0.98,0.10,40.85
8,0.02,1.03,0.09,39.82
8,-0.03,1.03,0.09,43.34
8,-0.04,1.03,0.09,43.34
8,-0.04,0.97,0.10,42.99
8,0.02,0.97,0.10,41.56
8,0.04,0.96,0.10,41.56
8,-0.02,1.02,0.10,40.07
8,-0.02,1.03,0.09,41.16
8,-0.05,1.03,0.09,40.88
8,0.01,1.00,0.07,43.23
8,0.01,0.97,0.10,39.70
8,0.03,0.97,0.10,41.51
8,-0.01,1.01,0.09,41.51
8,-0.05,1.04,0.08,38.89
8,-0.05,1.04,0.09,38.85
8,-0.02,1.00,0.09,38.85
8,0.04,0.96,0.09,41.73
8,0.04,0.96,0.09,42.86
8,0.01,1.00,0.09,42.55
8,-0.04,1.03,0.08,36.28
8,-0.04,1.01,0.09,40.45
8,-0.03,1.01,0.09,43.37
8,0.02,0.96,0.09,43.37
8,0.02,0.98,0.09,43.45
8,0.02,0.98,0.08,40.48
8,-0.04,1.03,0.08,40.48
8,-0.04,1.03,0.08,43.06
8,-0.04,1.03,0.09,37.90
8,0.02,0.97,0.09,37.90
8,0.04,0.96,0.10,39.53
8,0.04,0.97,0.09,44.50
8,-0.02,1.03,0.09,44.03
8,-0.05,1.04,0.08,42.46
8,-0.05,0.99,0.08,39.68
8,-0.01,0.99,0.09,39.38
8,0.03,0.96,0.09,39.38
8,0.06,1.01,0.09,39.54
8,-0.01,1.01,0.10,44.26
8,-0.04,1.03,0.10,44.26
8,-0.01,1.00,0.10,45.65
8,-0.01,1.03,0.09,39.00
8,0.04,0.96,0.09,38.96
8,0.02,1.01,0.11,40.53
8,0.02,1.04,0.09,40.26
8,-0.04,1.04,0.09,40.56
8,-0.04,1.02,0.09,40.56
8,-0.04,0.97,0.09,39.39
8,0.02,0.97,0.09,44.02
8,0.02,0.99,0.09,44.02
8,-0.03,1.02,0.08,39.87
8,-0.03,1.02,0.09,43.91
8,-0.04,1.02,0.09,44.29
8,0.02,0.98,0.09,44.29
8,0.02,0.96,0.12,42.75
8,0.04,0.96,0.12,39.97
8,-0.02,1.01,0.09,39.97
8,-0.05,1.03,0.09,39.35
8,-0.05,1.03,0.09,40.63
8,0.00,0.99,0.09,40.63
8,0.04,0.96,0.09,41.98
8,0.04,0.96,0.10,39.03
8,-0.01,1.01,0.10,38.61
8,-0.04,1.04,0.07,43.31
8,-0.04,1.01,0.07,39.77
8,-0.01,1.01,0.07,38.70
8,0.03,0.96,0.08,38.70
8,0.03,0.99,0.09,41.37
8,0.01,0.99,0.07,43.09
8,-0.06,1.04,0.07,43.09
8,-0.05,1.01,0.08,42.36
8,-0.05,1.01,0.09,37.43
8,0.02,0.97,0.09,37.43
8,0.03,0.98,0.09,39.28
8,0.03,0.96,0.10,42.06
8,-0.03,1.02,0.10,41.72
8,-0.02,1.03,0.09,37.80
8,-0.02,0.98,0.10,42.11
8,0.02,0.98,0.10,44.56
8,0.04,0.97,0.09,44.56
8,0.04,1.02,0.08,39.98
8,-0.02,1.02,0.08,41.06
8,-0.05,1.02,0.08,41.06
8,-0.00,0.99,0.09,41.86
8,-0.00,0.97,0.09,37.13
8,0.04,0.97,0.09,37.27
8,-0.00,1.01,0.09,42.75
8,-0.00,1.03,0.09,36.80
8,-0.04,1.03,0.09,42.81
8,-0.02,1.00,0.08,42.81
8,-0.03,0.97,0.08,38.10
8,0.03,0.97,0.10,39.71
8,0.00,1.00,0.10,39.71
8,-0.05,1.03,0.09,43.87
8,-0.05,1.03,0.08,41.92
8,-0.03,1.01,0.08,42.23
8,0.02,0.97,0.09,42.23
8,0.02,0.99,0.10,40.50
8,0.02,0.99,0.10,43.37
8,-0.03,1.02,0.09,43.37
8,-0.04,1.02,0.08,43.14
8,-0.04,1.02,0.08,39.80
8,0.02,0.98,0.08,39.80
8,0.03,0.98,0.09,43.00
8,0.03,0.98,0.10,47.85
8,-0.02,1.02,0.10,47.85
8,-0.05,1.03,0.09,40.64
8,-0.05,1.05,0.09,43.39
8,0.00,0.99,0.09,43.07
8,0.03,0.97,0.09,43.07
8,0.03,1.01,0.08,44.51
8,-0.01,1.01,0.08,38.57
8,-0.04,1.03,0.08,38.57
8,-0.01,1.00,0.08,40.14
8,-0.01,1.00,0.08,39.00
8,0.03,0.97,0.08,39.00
8,0.01,1.00,0.09,41.12
8,0.01,1.04,0.10,40.62
8,-0.05,1.04,0.10,40.39
8,-0.03,1.02,0.09,40.39
8,-0.03,0.97,0.09,43.00
8,0.02,0.97,0.09,44.72
8,0.02,0.98,0.10,44.72
8,0.04,1.02,0.09,42.74
8,-0.02,1.02,0.08,39.62
8,-0.04,1.02,0.08,39.62
8,0.02,0.97,0.09,43.72
8,0.02,0.97,0.09,40.24
8,0.03,0.97,0.09,40.04
8,-0.02,1.02,0.09,40.82
8,-0.02,1.02,0.08,41.85
8,-0.04,1.02,0.08,47.18
8,-0.00,0.98,0.09,47.18
8,-0.03,0.96,0.09,42.71
8,0.03,0.96,0.08,43.68
8,-0.01,1.02,0.08,43.68
8,-0.03,1.04,0.09,39.49
8,-0.03,1.04,0.08,36.68
8,0.00,1.00,0.08,36.47
8,0.02,0.96,0.09,42.73
8,0.02,0.94,0.10,40.52
8,0.01,1.01,0.10,41.51
8,-0.03,1.03,0.09,41.51
8,-0.02,1.01,0.09,38.75
8,-0.02,1.01,0.09,39.68
8,0.02,0.98,0.09,39.68
8,0.02,0.99,0.09,43.35
8,0.02,0.99,0.08,43.00
8,-0.03,1.03,0.08,43.00
8,-0.04,1.03,0.09,39.16
8,-0.04,1.04,0.08,41.85
8,0.01,0.98,0.08,44.72
8,0.03,0.98,0.08,44.72
8,0.03,1.02,0.09,41.30
8,-0.02,1.02,0.08,42.35
8,-0.04,1.03,0.08,42.35
8,-0.00,0.99,0.09,36.06
8,-0.00,0.99,0.09,39.94
8,0.03,0.97,0.09,39.94
8,-0.01,1.00,0.08,37.35
8,-0.01,1.03,0.09,38.46
8,-0.05,1.03,0.09,38.77
8,-0.01,1.00,0.08,38.77
8,-0.01,0.97,0.09,40.17
8,0.02,0.97,0.09,45.42
8,-0.00,0.99,0.10,45.42
8,-0.04,1.03,0.09,39.79
8,-0.04,1.03,0.09,39.73
8,-0.03,1.01,0.09,39.73
8,0.02,0.97,0.10,44.23
8,0.02,0.99,0.10,40.64
8,0.02,0.99,0.10,40.57
8,-0.03,1.03,0.09,44.49
8,-0.03,1.02,0.09,47.35
8,-0.03,1.02,0.09,41.39
8,0.01,0.98,0.09,41.39
8,0.01,0.97,0.09,42.84
8,0.01,0.97,0.08,40.19
8,-0.01,1.02,0.08,40.19
8,-0.03,1.03,0.08,39.05
8,-0.03,1.03,0.09,42.20
8,-0.00,0.98,0.09,41.50
8,0.03,0.97,0.09,39.15
8,0.03,0.95,0.08,37.07
8,0.00,1.01,0.08,40.64
8,-0.04,1.04,0.08,40.64
8,-0.04,1.00,0.08,37.23
8,-0.01,1.00,0.09,40.88
8,0.03,0.97,0.09,40.88
8,0.00,1.00,0.09,40.76
8,0.00,1.00,0.08,39.86
8,-0.04,1.03,0.08,39.86
8,-0.02,1.01,0.08,46.44
8,-0.02,1.03,0.09,43.45
8,0.01,0.96,0.09,43.47
8,0.01,0.99,0.09,40.34
8,0.01,1.02,0.09,39.79
8,-0.03,1.02,0.08,40.69
8,-0.03,1.02,0.08,40.69
8,-0.05,0.98,0.08,41.17
8,0.01,0.98,0.10,41.23
8,0.02,0.97,0.10,41.23
8,-0.03,1.02,0.09,39.81
8,-0.03,1.03,0.09,37.67
8,-0.06,1.03,0.09,37.99
8,0.00,1.00,0.09,40.34
8,0.00,0.98,0.09,39.82
8,0.04,0.98,0.09,38.45
8,-0.00,1.01,0.09,38.45
8,-0.03,1.04,0.09,41.73
8,-0.03,1.04,0.10,48.03
8,-0.00,1.00,0.10,48.03
8,0.04,0.97,0.09,44.57
8,0.04,0.97,0.09,42.13
8,0.01,0.99,0.09,41.87
8,-0.04,1.03,0.08,40.30
8,-0.04,1.01,0.08,42.25
8,-0.04,1.01,0.08,42.37
9,0.03,0.95,0.09,37.14
9,-0.01,1.02,0.09,37.47
9,-0.03,1.02,0.09,37.47
9,-0.00,0.99,0.08,43.57
9,-0.00,0.99,0.09,45.71
9,0.03,0.97,0.09,45.71
9,-0.00,1.01,0.09,41.14
9,-0.00,1.01,0.09,44.12
9,-0.03,1.03,0.09,44.12
9,-0.02,1.00,0.09,41.16
9,-0.02,0.96,0.09,42.38
9,0.02,0.96,0.09,46.42
9,0.00,1.00,0.09,46.42
9,0.00,1.03,0.08,46.66
9,-0.05,1.03,0.09,44.11
9,-0.01,1.00,0.09,44.11
9,-0.03,0.97,0.09,40.93
9,0.03,0.97,0.09,44.72
9,0.03,0.99,0.09,44.72
9,-0.02,1.03,0.09,44.72
9,-0.02,1.02,0.08,39.87
9,-0.03,1.02,0.08,39.70
9,0.01,0.98,0.09,42.05
9,0.01,0.97,0.09,45.45
9,0.03,0.97,0.09,40.24
9,-0.02,1.02,0.08,40.24
9,-0.03,1.03,0.08,37.80
9,-0.03,1.03,0.09,44.48
9,0.01,0.98,0.09,44.48
9,0.02,0.98,0.10,40.45
9,0.02,0.95,0.10,48.91
9,-0.01,1.01,0.10,48.98
9,-0.05,1.03,0.09,39.58
9,-0.05,1.00,0.08,39.77
9,-0.01,1.00,0.08,42.38
9,0.02,0.97,0.09,42.38
9,0.00,1.00,0.09,39.83
9,0.00,1.00,0.09,42.93
9,-0.04,1.03,0.09,42.93
9,-0.02,1.01,0.08,40.01
9,-0.02,1.01,0.09,42.73
9,0.03,0.98,0.09,42.97
9,0.01,0.99,0.09,44.54
9,0.01,0.97,0.08,44.41
9,-0.03,1.03,0.08,39.19
9,-0.04,1.02,0.09,39.19
9,-0.04,0.98,0.09,36.29
9,0.02,0.98,0.09,43.41
9,0.02,0.98,0.09,43.41
9,-0.02,1.02,0.10,37.86
9,-0.02,1.02,0.09,38.68
9,-0.03,1.03,0.09,38.68
9,0.01,0.99,0.09,43.87
9,0.01,0.97,0.09,43.01
9,0.02,0.97,0.09,42.43
9,-0.01,1.01,0.10,42.43
9,-0.01,1.02,0.09,47.70
9,-0.04,1.02,0.09,38.53
9,-0.01,0.99,0.09,38.53
9,-0.03,0.97,0.08,42.60
9,0.03,0.97,0.08,46.48
9,0.01,1.00,0.08,46.48
9,-0.03,1.02,0.09,41.85
9,-0.03,1.00,0.07,39.24
9,-0.02,1.00,0.07,39.48
9,0.02,0.98,0.08,41.05
9,0.02,0.98,0.09,38.32
9,0.01,0.98,0.09,37.72
9,-0.03,1.03,0.08,37.72
9,-0.03,1.01,0.08,39.37
9,-0.03,1.01,0.09,41.18
9,0.02,0.97,0.09,41.18
9,0.02,0.98,0.09,42.06
9,0.02,0.96,0.09,42.45
9,-0.03,1.02,0.09,42.27
9,-0.03,1.02,0.09,46.97
9,-0.03,0.99,0.09,39.64
9,0.02,0.99,0.09,42.62
9,0.03,0.98,0.09,42.62
9,0.06,1.01,0.09,40.06
9,-0.01,1.01,0.09,36.71
9,-0.05,1.02,0.09,36.71
9,-0.00,0.99,0.09,40.48
9,-0.00,0.99,0.09,42.16
9,0.03,0.97,0.09,42.07
9,-0.00,1.00,0.10,40.50
9,-0.00,0.96,0.08,41.38
9,-0.04,1.03,0.08,37.18
9,-0.02,1.00,0.08,37.18
9,-0.02,0.97,0.08,42.42
9,0.02,0.97,0.09,43.47
9,0.01,0.99,0.09,43.47
9,-0.04,1.03,0.08,47.38
9,-0.04,1.03,0.08,43.61
9,-0.03,1.02,0.08,43.61
9,0.02,0.98,0.09,40.35
9,0.02,0.98,0.10,39.74
9,0.02,0.98,0.10,39.86