seconds, accX, accY, accZ, temp
10,-0.12,-0.61,0.05,38.06
10,0.02,-0.61,0.05,37.65
10,0.14,-0.45,0.31,37.65
10,0.16,-0.21,0.21,38.41
10,0.28,-0.21,0.25,39.69
10,0.39,-0.00,1.37,39.69
10,0.58,0.44,-0.12,39.20
10,0.58,0.44,-0.31,41.23
10,0.66,0.96,-0.31,40.69
10,0.68,1.45,-0.56,39.12
10,0.68,1.45,-0.57,40.33
10,0.25,2.32,-0.57,39.08
10,-0.25,3.02,-0.77,39.08
10,-0.22,3.49,-0.89,43.13
10,-0.66,3.49,-0.91,37.06
10,-1.22,3.87,-1.09,37.06
10,-1.53,3.90,-1.42,40.21
10,-1.53,3.90,-1.39,39.25
10,-1.55,3.56,-1.39,39.25
10,-1.33,3.21,-1.31,39.91
10,-1.33,3.19,-1.01,39.87
10,-1.09,2.88,-1.01,39.66
10,-0.74,2.56,-0.78,40.45
10,-0.74,2.29,-0.58,41.92
10,-0.48,2.29,-0.59,39.24
10,-0.44,2.04,-0.47,39.24
10,-0.41,1.74,-0.42,43.48
10,-0.47,1.74,-0.37,42.10
10,-0.48,1.46,-0.37,42.10
10,-0.45,1.08,-0.25,41.54
10,-0.45,1.09,-0.10,41.29
10,-0.43,0.90,-0.10,41.18
10,-0.48,0.56,-0.09,41.96
10,-0.48,0.25,0.11,38.75
10,-0.52,0.25,0.11,39.46
10,-0.44,0.09,-1.23,39.46
10,-0.47,-0.24,0.17,39.50
10,-0.53,-0.24,0.17,40.04
10,-0.57,-0.38,0.24,40.04
10,-0.58,-0.50,0.33,38.69
10,-0.58,-0.50,0.43,38.91
10,-0.61,-0.60,0.43,38.94
10,-0.64,-0.71,0.48,40.51
10,-0.64,-0.74,0.52,38.66
10,-0.60,-0.81,0.52,38.01
10,-0.52,-0.91,0.56,38.01
10,-0.53,-1.07,0.60,40.55
10,-0.53,-1.07,0.62,40.86
10,-0.46,-1.17,0.49,40.86
10,-0.18,-1.17,0.50,39.42
10,-0.18,-1.17,0.68,39.03
10,0.15,-1.11,0.68,39.03
10,0.35,-0.95,0.49,38.13
10,0.35,-0.95,1.99,40.85
10,0.51,-0.82,1.99,40.71
10,0.52,-0.40,0.38,40.71
10,0.52,-0.08,0.20,41.04
10,0.55,-0.08,0.20,39.60
10,0.68,0.29,-0.11,39.60
10,0.68,0.92,-0.30,39.15
10,0.86,0.92,-0.46,38.90
10,0.86,1.55,-0.46,38.90
10,0.67,2.19,-0.63,41.60
10,0.67,2.24,-0.82,38.80
10,0.28,2.68,-0.82,38.49
10,-0.29,3.11,-1.02,40.06
10,-0.29,3.54,-1.24,39.69
10,-0.92,3.54,-1.24,40.25
10,-1.47,3.90,-1.35,40.25
10,-1.44,4.38,-1.49,37.81
10,-1.69,4.38,-1.45,38.73
10,-1.79,4.42,-1.52,38.73
10,-1.82,3.90,-1.62,41.08
10,-1.82,3.90,-1.57,40.63
10,-1.82,3.28,-1.57,40.22
10,-1.52,2.69,-1.49,41.79
10,-1.52,2.72,-1.37,41.98
10,-1.12,2.03,-1.37,40.55
10,-0.79,1.38,-1.21,40.55
10,-0.79,0.86,-0.97,40.33
10,-0.59,0.86,-0.96,37.16
10,-0.42,0.52,-0.84,37.16
10,-0.19,0.28,-0.40,43.38
10,-0.19,0.28,-0.16,40.23
10,-0.01,0.17,-0.16,40.23
10,0.16,0.14,0.11,37.43
10,0.16,0.13,0.31,39.58
10,0.25,0.13,0.31,39.74
10,0.20,0.09,0.42,38.17
10,0.20,0.01,0.48,39.08
10,0.07,0.01,0.48,41.06
10,-0.06,-0.13,0.52,41.06
10,-0.05,-0.37,0.56,41.69
10,-0.11,-0.37,0.62,41.71
10,-0.01,-0.58,0.62,41.71
10,0.16,-0.75,0.72,43.00
10,0.16,-0.81,0.78,40.41
10,0.26,-0.93,0.78,40.63
10,0.31,-1.09,0.77,39.06
10,0.31,-1.10,0.76,40.07
10,0.43,-1.10,0.76,40.55
10,0.57,-0.99,0.72,40.55
10,0.59,-0.69,0.67,38.53
10,0.72,-0.69,0.65,37.86
10,0.66,-0.11,0.71,37.86
10,0.83,0.23,0.52,41.32
10,0.83,0.23,0.40,40.32
10,0.86,0.60,0.40,40.65
10,0.85,1.08,0.19,38.30
10,0.85,1.07,0.06,39.95
10,1.00,1.63,0.06,37.48
10,1.05,2.30,-0.05,37.48
10,1.05,2.89,-0.21,38.56
10,0.96,2.89,-0.21,43.64
10,0.71,3.24,0.23,43.64
10,0.73,3.94,-0.58,40.26
10,0.42,3.94,-0.73,40.38
10,0.00,3.89,-0.73,40.38
10,-0.39,3.70,-1.08,38.86
10,-0.39,3.73,-1.45,40.73
10,-0.62,3.48,-1.45,40.83
10,-1.10,3.08,-1.55,40.83
10,-1.10,2.65,-1.69,39.34
10,-1.27,2.65,-1.69,39.20
10,-1.58,2.47,-1.59,39.20
10,-1.59,2.27,-1.48,39.34
10,-1.90,2.27,-1.49,39.01
10,-2.06,2.05,-1.36,39.01
10,-2.02,1.69,-1.21,39.70
10,-2.02,1.69,-1.14,40.67
10,-1.87,1.25,-1.14,41.29
10,-1.67,0.90,-1.10,41.29
10,-1.67,0.93,-0.93,40.97
10,-1.32,0.37,-0.93,37.68
10,-1.09,0.07,-0.74,37.68
10,-1.09,-0.27,-0.55,39.37
10,-0.82,-0.27,-0.51,38.66
10,-0.53,-0.48,-0.32,38.66
10,-0.25,-0.54,-0.09,40.54
10,-0.25,-0.54,0.11,38.34
10,-0.02,-0.55,0.11,38.34
10,0.15,-0.48,0.29,38.48
10,0.15,-0.46,0.42,38.90
10,0.20,-0.40,0.42,39.05
10,0.32,-0.36,0.50,38.26
10,0.32,-0.35,0.59,40.09
10,0.47,-0.35,0.62,39.15
10,0.61,-0.40,0.69,39.15
10,0.58,-0.50,0.76,37.27
10,0.77,-0.50,0.78,40.85
10,0.93,-0.57,0.78,40.85
10,1.04,-0.60,0.77,40.39
10,1.04,-0.58,0.76,41.41
10,1.11,-0.39,0.76,41.10
10,1.22,-0.09,0.70,40.32
10,1.22,0.22,0.52,40.72
10,1.36,0.22,0.52,40.60
10,1.10,0.78,0.40,40.60
10,1.09,1.28,0.10,41.82
10,1.09,1.28,0.12,41.19
10,1.22,1.93,0.12,41.19
10,1.15,2.58,0.00,41.10
10,1.15,2.58,-0.09,39.52
10,1.00,3.10,-0.09,39.22
10,0.70,3.45,-0.23,39.22
10,0.70,3.50,-0.41,38.95
10,0.31,3.69,-0.41,43.54
10,-0.05,3.75,-0.59,43.54
10,-0.05,3.59,-0.79,39.77
10,-0.42,3.59,-0.80,39.99
10,-0.78,3.27,-0.99,39.99
10,-0.81,2.87,-1.15,38.85
10,-1.12,2.87,-1.23,43.28
10,-1.36,2.45,-1.23,43.28
10,-1.52,2.08,-1.19,40.12
10,-1.52,2.09,-1.27,40.34
10,-1.70,1.84,-1.27,40.05
10,-1.88,1.75,-1.18,39.26
10,-1.88,1.19,-1.13,38.64
10,-1.65,1.19,-1.13,39.75
10,-1.46,0.90,-1.02,39.75
10,-1.49,0.52,-0.88,37.57
10,-1.18,0.52,-0.93,38.89
10,-0.90,0.21,-0.68,38.89
10,-0.70,-0.08,-0.46,43.84
10,-0.70,-0.08,-0.26,40.55
10,-0.46,-0.24,-0.26,40.17
10,-0.25,-0.35,-0.06,39.39
10,-0.25,-0.39,0.13,39.90
10,-0.04,-0.39,0.13,38.22
10,0.15,-0.35,0.33,38.22
10,0.14,-0.32,0.47,39.92
10,0.26,-0.32,0.47,38.19
10,0.38,-0.29,0.60,38.19
10,0.43,-0.32,0.67,38.57
10,0.43,-0.32,0.74,38.98
10,0.48,-0.36,0.74,38.98
10,0.49,-0.45,0.75,39.20
11,0.81,0.60,0.25,41.30
11,0.88,1.09,0.12,38.16
11,0.88,1.65,0.12,39.81
11,1.11,1.65,0.12,44.53
11,1.10,2.14,0.04,44.53
11,1.12,2.63,-0.06,39.69
11,0.93,2.63,-0.24,39.75
11,0.69,2.93,-0.24,39.75
11,0.33,3.24,-0.38,38.88
11,0.33,3.20,-0.49,38.22
11,0.01,3.33,-0.49,37.81
11,-0.28,3.15,-0.66,41.73
11,-0.28,2.86,-0.79,38.47
11,-0.54,2.86,-0.79,37.53
11,-0.67,2.58,-0.80,37.53
11,-0.68,2.32,-0.72,37.53
11,-0.68,2.32,-0.69,39.05
11,-0.67,2.04,-0.38,39.05
11,-0.67,1.78,-0.60,39.76
11,-0.67,1.78,-0.57,42.56
11,-0.71,1.49,-0.57,42.74
11,-0.95,1.24,-0.36,41.95
11,-0.95,1.22,-0.47,39.16
11,-0.69,0.53,-0.47,39.21
11,-0.97,0.54,-0.43,39.21
11,-0.97,0.20,-0.34,39.07
11,-1.05,0.20,-0.34,38.14
11,-1.22,-0.17,-0.28,38.14
11,-1.23,-0.40,-0.23,37.42
11,-1.35,-0.40,-0.14,41.89
11,-1.37,-0.47,-0.14,41.89
11,-1.16,-0.41,-0.00,38.59
11,-1.16,-0.38,0.13,38.89
11,-0.73,-0.32,0.13,38.35
11,-0.31,-0.21,0.24,39.14
11,-0.31,-0.10,0.28,38.22
11,0.07,-0.10,0.28,42.26
11,0.45,0.02,0.32,42.26
11,0.48,0.12,0.38,39.71
11,0.73,0.12,0.44,38.47
11,0.87,0.16,0.44,38.47
11,0.90,0.21,0.47,38.78
11,0.90,0.24,0.43,39.69
11,0.83,0.31,0.43,39.67
11,0.90,0.47,0.29,42.81
11,0.90,0.73,0.09,39.26
11,0.80,0.73,0.09,38.34
11,0.60,1.31,0.03,38.34
11,0.59,1.87,-0.52,38.94
11,0.34,1.87,-0.52,39.43
11,0.28,2.46,-0.33,39.43
11,0.06,2.89,-0.44,40.11
11,0.06,2.89,-0.54,39.80
11,-0.26,3.24,-0.54,39.52
11,-0.64,3.41,-0.69,40.31
11,-0.64,3.41,-0.78,40.44
11,-0.93,3.41,-0.78,40.75
11,-1.10,3.30,-0.83,40.75
11,-1.10,3.06,-0.83,39.89
11,-1.17,3.06,-0.85,39.82
11,-1.01,2.69,-0.66,39.82
11,-1.01,2.20,-1.78,43.22
11,-1.01,2.20,-0.80,41.37
11,-0.51,1.80,-0.80,41.37
11,-0.31,1.46,-0.59,39.75
11,-0.31,1.44,-0.43,41.85
11,-0.17,1.06,-0.43,42.20
11,-0.10,0.73,-0.28,39.07
11,-0.10,0.40,-0.16,39.41
11,-0.15,0.40,-0.16,39.43
11,-0.23,0.16,-0.03,39.43
11,-0.20,-0.07,0.27,37.14
11,-0.32,-0.07,0.26,39.23
11,-0.47,0.02,-1.74,39.23
11,0.55,-0.92,0.46,39.57
11,0.55,-0.92,0.50,38.41
11,-0.35,-0.68,0.50,38.74
11,-0.30,-0.81,0.64,38.74
11,-0.30,-0.83,0.71,38.67
11,-0.19,-0.83,0.71,41.40
11,-0.04,-0.78,0.72,41.40
11,-0.03,-0.73,0.74,42.50
11,0.03,-0.73,0.73,39.72
11,0.09,-0.66,0.73,39.72
11,0.20,-0.54,0.47,38.83
11,0.20,-0.54,0.14,43.29
11,0.32,-0.43,0.14,43.29
11,0.46,-0.34,0.98,40.08
11,0.46,-0.35,0.43,39.95
11,0.60,-0.10,0.43,40.66
11,0.70,0.12,0.26,39.87
11,0.70,0.46,0.20,39.34
11,0.71,0.46,0.21,40.67
11,1.00,0.76,-0.04,40.67
11,0.98,1.65,-0.05,40.95
11,0.42,1.65,-0.20,40.39
11,0.77,2.01,-0.20,40.39
11,0.58,2.56,-0.25,39.39
11,0.58,2.52,-0.30,40.12
11,0.35,3.02,-0.30,39.98
11,0.14,3.31,-0.45,41.55
11,0.14,3.41,-0.61,40.08
11,-0.12,3.41,-0.61,39.77
11,-0.46,3.35,-0.96,39.77
11,-0.46,3.04,-0.85,38.88
11,-0.71,3.04,-0.87,40.58
11,-0.86,2.65,-0.87,40.58
11,-0.97,2.26,-0.83,36.91
11,-0.97,2.26,-0.82,40.02
11,-1.00,1.94,-0.82,40.00
11,-1.02,1.71,-0.77,39.22
11,-1.02,1.69,-0.95,38.94
11,-1.07,1.50,-0.95,40.12
11,-0.98,1.26,-0.47,40.12
11,-0.98,1.06,-0.56,39.75
11,-0.88,1.06,-0.53,41.96
11,-0.72,0.79,-0.46,41.96
11,-0.64,0.54,-0.20,40.97
11,-0.64,0.54,-2.76,41.07
11,-0.72,0.52,-2.76,41.07
11,-0.71,0.32,-0.14,39.31
11,-0.71,0.36,-0.07,39.84
11,-0.59,-0.01,-0.07,39.67
11,-0.56,-0.10,0.13,39.67
11,-0.56,-0.16,0.25,41.48
11,-0.53,-0.16,0.25,41.87
11,-0.46,-0.16,0.33,41.87
11,-0.50,-0.19,0.35,40.82
11,-0.37,-0.19,0.37,42.41
11,-0.28,-0.22,0.43,42.41
11,-0.15,-0.23,0.41,43.09
11,-0.15,-0.20,0.53,41.03
11,0.02,-0.27,0.53,41.13
11,0.13,-0.29,0.42,38.00
11,0.13,-0.38,0.42,38.47
11,0.26,-0.38,0.42,40.71
11,0.41,-0.44,0.49,40.71
11,0.38,-0.40,0.37,38.43
11,0.56,-0.40,0.35,38.97
11,0.68,-0.18,-0.21,38.97
11,0.84,0.05,0.28,39.63
11,0.84,0.05,0.23,40.43
11,0.73,0.56,0.23,40.05
11,1.40,0.83,0.02,41.62
11,1.40,0.84,-0.03,41.68
11,1.22,1.78,-0.03,40.70
11,1.07,2.23,-0.10,40.70
11,1.07,2.67,-0.22,40.50
11,0.86,2.67,-0.20,40.36
11,0.62,3.02,-0.70,40.36
11,0.58,3.18,-0.47,40.71
11,0.39,3.18,-0.57,37.46
11,0.07,3.19,-0.57,37.46
11,-0.23,3.06,-0.64,40.19
11,-0.23,3.02,-0.63,41.56
11,-0.42,2.90,-0.63,41.65
11,-0.60,2.64,-0.60,40.08
11,-0.60,2.33,-0.61,40.85
11,-0.71,2.33,-0.61,40.48
11,-0.82,2.02,-0.65,40.48
11,-0.83,1.79,-0.67,41.39
11,-0.96,1.79,-0.63,39.71
11,-1.01,1.62,-0.44,39.71
11,-1.21,1.55,-1.40,39.91
11,-1.21,1.55,-0.49,39.51
11,-0.99,1.24,-0.49,39.40
11,-0.87,1.01,-0.45,39.40
11,-0.87,1.06,-0.34,39.83
11,-0.74,0.74,-0.34,39.31
11,-0.79,0.67,-0.34,39.31
11,-0.79,-0.11,-0.39,38.61
11,-0.29,-0.11,-0.40,40.53
11,-0.58,0.13,-0.03,40.53
11,-0.50,-0.05,0.10,40.74
11,-0.50,-0.05,0.21,39.95
11,-0.43,-0.19,0.21,39.95
11,-0.34,-0.31,0.31,37.94
11,-0.34,-0.26,0.40,39.12
11,-0.18,-0.38,0.40,39.31
11,0.01,-0.44,0.47,42.44
11,0.01,-0.46,0.53,39.98
11,0.15,-0.46,0.52,41.49
11,0.30,-0.42,0.59,41.49
11,0.31,-0.43,0.59,39.91
11,0.37,-0.43,0.60,39.32
11,0.50,-0.44,0.60,39.32
11,0.64,-0.34,0.55,40.20
11,0.64,-0.32,0.61,38.97
11,0.70,-0.26,0.61,38.41
11,0.70,-0.02,-0.25,41.55
11,0.70,0.18,0.29,42.72
11,0.68,0.18,0.29,38.96
11,0.25,0.48,0.18,38.96
11,0.28,1.58,0.01,38.86
11,0.41,1.58,0.02,42.28
11,0.77,1.71,-0.05,42.28
11,0.73,2.28,-0.14,40.83
11,0.73,2.28,-0.25,39.36
11,0.61,2.78,-0.25,39.67
11,0.40,3.09,-0.22,39.67
11,0.40,3.09,-0.41,38.83
11,0.18,3.34,-0.41,37.50
11,-0.12,3.39,-0.34,37.50
11,-0.12,3.31,-0.58,38.90
11,-0.42,3.31,-0.58,41.44
11,-0.65,2.96,-0.65,41.44
11,-0.85,2.49,-0.71,43.94
11,-0.85,2.49,-0.80,41.67
11,-0.96,2.01,-0.80,41.67
11,-1.00,1.71,-0.80,39.63
11,-1.00,1.71,-0.66,39.97
11,-0.97,1.46,-0.66,40.43
11,-0.90,1.20,-0.50,38.08
11,-0.90,0.87,-0.50,40.11
11,-0.80,0.87,-0.50,41.27
11,-0.70,0.68,-0.34,41.27
11,-0.73,0.47,-0.16,43.99
11,-0.55,0.47,0.72,40.33
11,-0.50,0.19,0.72,40.33
11,0.28,-0.38,-0.90,39.44
11,0.28,-0.40,0.28,39.40
11,-0.20,-0.34,0.28,39.29
11,0.06,-0.46,0.48,40.86
11,0.06,-0.56,0.62,38.73
11,0.28,-0.56,0.62,41.91
11,0.48,-0.53,0.85,41.91
11,0.45,-0.34,0.92,39.45
11,0.51,-0.34,0.93,38.56
11,0.37,-0.14,0.99,38.56
11,0.18,0.08,0.01,38.80
11,0.18,0.08,0.42,41.89
11,0.02,0.16,0.42,41.69
12,-0.44,2.72,-0.53,40.21
12,-0.66,2.72,-0.53,40.41
12,-0.27,2.12,-0.66,39.63
12,-0.27,2.11,-0.35,38.08
12,-0.69,2.11,-0.35,43.17
12,-0.44,1.61,-0.35,43.17
12,-0.46,1.29,-0.19,38.17
12,-0.08,1.29,-0.25,43.76
12,0.03,0.99,0.00,43.76
12,0.08,0.78,0.14,43.13
12,0.08,0.78,0.25,41.63
12,0.13,0.65,0.25,41.49
12,0.15,0.57,0.35,41.49
12,0.15,0.59,0.41,38.53
12,0.15,0.53,0.41,44.46
12,0.15,0.51,0.45,44.46
12,0.15,0.51,0.49,40.02
12,0.18,0.51,0.46,39.12
12,0.23,0.52,0.53,39.12
12,0.20,0.53,0.54,37.62
12,0.26,0.53,0.56,38.06
12,0.30,0.55,0.56,38.06
12,1.01,0.92,0.61,41.76
12,1.01,0.88,0.67,41.57
12,0.31,0.57,0.67,41.47
12,0.22,0.71,0.68,39.91
12,0.22,0.43,0.64,41.31
12,0.44,0.43,0.64,38.14
12,0.47,0.51,0.65,38.14
12,0.45,0.56,0.63,41.28
12,0.58,0.56,0.68,41.34
12,0.61,0.65,0.62,41.34
12,0.56,0.70,0.59,39.12
12,0.56,0.70,0.55,40.67
12,0.48,0.77,0.55,40.85
12,0.39,0.82,0.51,40.06
12,0.39,0.86,0.48,38.67
12,0.32,0.86,0.48,40.21
12,0.28,0.88,0.46,40.21
12,0.28,0.88,0.44,42.16
12,0.26,0.88,0.49,41.23
12,0.28,0.86,0.43,41.23
12,0.30,0.83,0.47,43.88
12,0.30,0.83,0.64,41.27
12,0.22,0.85,0.64,41.27
12,0.78,0.57,0.48,38.49
12,0.78,0.58,0.57,39.21
12,0.44,0.83,0.57,39.73
12,0.46,0.78,0.56,38.16
12,0.46,0.66,0.62,39.65
12,0.47,0.66,0.62,39.26
12,0.48,0.73,0.60,39.26
12,0.47,0.71,0.62,39.78
12,0.47,0.71,0.61,40.50
12,0.48,0.69,0.61,40.50
12,0.49,0.68,0.59,41.25
12,0.49,0.68,0.55,38.86
12,0.46,0.67,0.55,38.73
12,0.45,0.68,0.50,39.52
12,0.45,0.68,0.44,39.31
12,0.42,0.68,0.44,39.15
12,0.34,0.71,0.36,39.15
12,0.34,0.75,0.26,41.70
12,0.27,0.75,0.30,41.73
12,0.21,0.81,0.17,41.73
12,0.13,0.87,0.08,39.45
12,0.13,0.87,-0.01,45.09
12,-0.02,0.97,-0.01,45.09
12,-0.15,1.03,-0.13,44.34
12,-0.15,1.02,-0.22,40.58
12,-0.27,1.08,-0.22,40.63
12,-0.51,0.99,-0.30,40.63
12,-0.51,1.21,-0.37,39.35
12,-0.51,1.21,-0.34,39.32
12,-0.60,1.26,-0.40,39.32
12,-0.62,1.31,-0.43,39.68
12,-0.68,1.31,-0.49,44.20
12,-0.74,1.40,-0.49,44.20
12,-0.78,1.39,-0.39,42.34
12,-0.78,1.43,-0.44,40.88
12,-0.75,1.43,-0.44,41.13
12,-0.67,1.42,-0.40,41.91
12,-0.67,1.41,-0.52,43.96
12,-0.65,1.41,-0.52,43.52
12,-0.58,1.34,-0.39,43.52
12,-0.62,1.35,-0.36,41.80
12,-0.56,1.35,-0.34,41.03
12,-0.58,1.22,-0.34,41.03
12,-0.61,1.15,-0.33,39.95
12,-0.61,1.15,-0.29,39.07
12,-0.61,1.08,-0.29,38.82
12,-0.57,1.01,-0.25,42.74
12,-0.57,1.05,-0.18,42.59
12,-0.53,0.98,-0.18,40.88
12,-0.52,0.94,-0.17,40.88
12,-0.52,0.94,-0.13,37.92
12,-0.46,0.94,-0.16,40.80
12,-0.38,0.93,-0.09,40.80
12,-0.43,0.92,-0.06,38.54
12,-0.30,0.92,-0.05,41.37
12,-0.24,0.92,-0.05,41.37
12,-0.20,0.94,-0.02,40.08
12,-0.20,0.97,0.01,39.10
12,-0.15,0.97,0.01,38.68
12,-0.11,0.98,0.03,39.47
12,-0.11,0.97,0.04,39.16
12,-0.09,0.97,0.04,40.84
12,-0.05,0.96,0.05,40.84
12,-0.02,0.95,0.07,42.71
12,-0.02,0.95,0.09,43.98
12,-0.00,0.95,0.09,43.98
12,0.01,0.94,0.10,43.04
12,0.01,0.94,0.11,41.02
12,0.03,0.94,0.11,41.11
12,0.07,0.95,0.11,42.68
12,0.07,0.96,0.12,40.20
12,0.12,0.96,0.12,39.92
12,0.12,0.98,0.13,39.92
12,0.12,0.98,0.15,43.94
12,0.11,0.98,0.15,41.85
12,0.08,0.98,0.15,41.85
12,0.05,0.97,0.13,38.96
12,0.05,0.97,0.13,39.19
12,0.07,0.94,0.13,39.19
12,0.09,0.93,0.11,39.61
12,0.09,0.94,0.10,40.79
12,0.07,0.94,0.10,40.95
12,0.03,0.94,0.09,40.16
12,0.03,0.95,0.07,40.25
12,-0.02,0.95,0.07,39.96
12,-0.08,0.96,0.04,39.96
12,-0.10,0.98,0.02,40.33
12,-0.10,0.98,0.06,40.41
12,-0.13,0.98,-0.00,40.41
12,-0.14,0.96,-0.01,40.35
12,-0.14,0.96,-0.01,39.81
12,-0.13,0.96,-0.01,39.64
12,-0.12,0.97,-0.02,41.20
12,-0.12,0.99,-0.02,41.18
12,-0.13,0.99,-0.02,38.27
12,-0.13,1.00,-0.03,38.27
12,-0.13,1.00,-0.03,39.81
12,-0.13,1.00,-0.03,39.27
12,-0.11,0.99,-0.03,39.27
1,-0.17,0.99,0.15,38.75
1,-0.18,0.99,0.15,38.97
1,-0.12,1.00,0.12,35.83
1,-0.12,0.98,0.10,37.15
1,-0.08,0.98,0.10,38.49
1,-0.10,0.99,0.12,38.49
1,-0.11,0.99,0.15,38.22
1,-0.17,0.99,0.15,38.08
1,-0.18,0.99,0.15,38.08
1,-0.12,0.99,0.13,38.64
1,-0.12,0.99,0.10,35.29
1,-0.07,0.98,0.10,35.29
1,-0.10,0.99,0.12,40.54
1,-0.10,0.99,0.14,34.26
1,-0.18,0.99,0.14,33.99
1,-0.17,0.99,0.14,37.90
1,-0.17,0.99,0.12,39.73
1,-0.12,0.99,0.10,40.28
1,-0.08,0.98,0.10,40.28
1,-0.11,0.99,0.12,35.38
1,-0.11,0.99,0.15,37.54
1,-0.17,1.00,0.15,37.54
1,-0.17,0.99,0.15,35.64
1,-0.17,0.99,0.12,37.64
1,-0.11,0.99,0.12,37.94
1,-0.07,0.99,0.10,38.72
1,-0.07,0.99,0.12,38.85
1,-0.11,0.99,0.12,36.97
1,-0.18,0.99,0.14,36.97
1,-0.17,1.00,0.14,34.82
1,-0.17,1.00,0.18,36.48
1,-0.11,0.99,0.12,36.48
1,-0.08,0.98,0.11,37.35
1,-0.08,0.98,0.12,35.80
1,-0.12,0.99,0.12,35.51
1,-0.18,0.99,0.15,36.29
1,-0.18,0.99,0.14,37.36
1,-0.17,0.99,0.14,36.79
1,-0.11,0.99,0.12,36.79
1,-0.11,0.98,0.10,36.74
1,-0.07,0.98,0.06,38.01
1,-0.12,0.99,0.13,38.01
1,-0.12,1.00,0.14,35.84
1,-0.18,1.00,0.14,37.02
1,-0.17,0.99,0.14,37.02
1,-0.10,0.99,0.11,38.37
1,-0.10,0.99,0.11,34.65
1,-0.08,0.99,0.11,34.91
1,-0.12,0.98,0.13,35.69
1,-0.12,1.00,0.15,34.87
1,-0.19,1.00,0.15,36.72
1,-0.17,0.99,0.14,36.72
1,-0.16,0.99,0.11,36.83
1,-0.10,0.99,0.11,36.27
1,-0.08,0.99,0.11,36.27
1,-0.12,0.98,0.12,39.14
1,-0.12,0.98,0.15,35.62
1,-0.19,1.00,0.15,35.73
1,-0.16,0.99,0.14,38.08
1,-0.16,0.99,0.11,37.24
1,-0.09,0.99,0.11,34.01
1,-0.08,0.99,0.10,34.01
1,-0.08,0.98,0.13,35.37
1,-0.13,0.98,0.15,36.50
1,-0.18,0.99,0.15,36.50
1,-0.16,0.99,0.14,35.81
1,-0.16,0.99,0.11,36.19
1,-0.10,0.99,0.11,36.19
1,-0.08,0.99,0.10,39.07
1,-0.08,0.99,0.13,36.49
1,-0.13,0.99,0.13,36.47
1,-0.19,1.00,0.15,36.47
1,-0.19,0.99,0.13,33.68
1,-0.15,0.99,0.13,40.26
1,-0.08,0.99,0.11,40.26
1,-0.08,0.99,0.09,37.60
1,-0.08,0.99,0.06,34.42
1,-0.14,0.98,0.13,34.42
1,-0.19,0.99,0.15,37.26
1,-0.19,0.99,0.17,37.21
1,-0.15,0.99,0.17,37.08
1,-0.09,0.98,0.14,38.65
1,-0.09,0.99,0.08,37.49
1,-0.08,0.99,0.08,39.13
1,-0.14,0.98,0.14,39.13
1,-0.14,0.99,0.15,34.22
1,-0.19,0.99,0.13,35.26
1,-0.15,0.99,0.13,35.26
1,-0.15,0.98,0.09,35.83
1,-0.08,0.98,0.10,36.46
1,-0.09,0.99,0.10,36.46
1,-0.15,0.99,0.13,41.28
1,-0.15,0.99,0.14,35.65
1,-0.19,0.99,0.14,35.42
1,-0.15,0.99,0.13,38.55
1,-0.15,0.99,0.10,39.53
1,-0.08,0.99,0.10,42.98
1,-0.09,0.99,0.10,42.98
1,-0.09,0.98,0.13,36.45
1,-0.15,0.98,0.14,36.30
1,-0.20,0.99,0.14,36.30
1,-0.14,0.99,0.12,41.52
1,-0.14,0.99,0.10,38.05
1,-0.08,0.98,0.10,37.59
1,-0.09,0.99,0.10,37.59
1,-0.09,0.98,0.14,37.98
1,-0.15,0.98,0.14,37.84
1,-0.18,0.99,0.15,37.84
1,-0.18,0.99,0.13,36.09
1,-0.14,0.99,0.17,36.13
1,-0.07,0.98,0.10,36.13
1,-0.09,0.99,0.11,37.48
1,-0.09,0.99,0.14,38.49
1,-0.16,0.98,0.14,38.49
1,-0.18,1.00,0.15,36.18
1,-0.18,0.99,0.13,35.91
1,-0.13,0.99,0.13,35.83
1,-0.07,0.98,0.11,37.39
1,-0.07,0.99,0.11,41.64
1,-0.09,0.99,0.11,37.91
1,-0.16,0.99,0.14,37.91
1,-0.19,0.99,0.14,37.78
1,-0.19,0.99,0.13,35.99
1,-0.13,1.00,0.13,35.99
1,-0.07,0.99,0.10,37.77
1,-0.07,0.99,0.11,35.13
1,-0.10,0.98,0.11,34.82
1,-0.17,0.98,0.14,37.96
1,-0.17,0.99,0.14,37.26
1,-0.19,0.99,0.14,36.05
1,-0.13,0.99,0.12,36.05
1,-0.13,0.98,0.10,37.82
1,-0.08,0.98,0.11,36.31
1,-0.11,0.99,0.11,36.31
1,-0.10,0.99,0.14,36.31
1,-0.16,0.99,0.14,36.06
1,-0.18,0.99,0.14,36.06
1,-0.13,0.99,0.12,35.71
1,-0.13,0.98,0.11,37.79
1,-0.07,0.98,0.11,37.99
1,-0.10,0.99,0.12,39.56
1,-0.10,0.98,0.14,35.26
1,-0.25,0.98,0.14,39.16
1,-0.41,0.97,0.15,39.16
1,-0.43,0.98,0.13,34.91
1,-0.11,0.98,0.14,39.70
1,0.10,1.00,0.08,39.70
1,-0.15,1.00,0.06,40.82
1,-0.15,1.00,0.12,40.74
1,-0.17,0.99,0.12,41.00
1,0.06,1.01,0.15,36.30
1,0.06,1.00,0.15,34.60
1,-0.05,1.00,0.15,35.39
1,-0.14,0.99,0.12,35.39
1,-0.14,1.00,0.13,37.46
1,0.05,1.00,0.16,35.29
1,-0.04,1.00,0.16,35.29
1,-0.28,0.99,0.18,38.82
1,-0.28,0.99,0.18,39.04
1,-0.11,0.98,0.18,39.04
1,-0.06,0.99,0.13,40.37
1,-0.06,0.94,0.13,34.33
1,-0.47,0.94,0.13,34.20
1,-0.43,0.96,0.11,34.98
1,-0.43,1.00,0.03,40.48
1,-0.11,1.00,0.03,38.04
1,-0.17,1.00,-0.04,38.04
1,-0.17,0.99,-0.01,42.44
1,-0.17,0.99,-0.00,39.58
1,0.06,1.00,0.12,39.58
1,0.02,1.00,0.24,36.87
1,0.02,1.00,0.20,34.75
1,-0.15,1.00,0.20,34.72
1,0.03,1.02,0.08,37.07
1,0.03,1.02,0.06,40.65
1,0.14,1.02,0.06,38.30
1,-0.08,0.99,0.13,38.30
1,-0.07,1.00,0.18,37.43
1,-0.13,1.00,0.18,39.42
1,-0.04,1.00,0.18,39.42
1,-0.15,0.99,0.14,34.28
1,-0.15,0.99,0.13,38.76
1,-0.20,0.97,0.13,38.76
1,-0.12,0.99,0.10,35.59
1,-0.12,0.99,0.11,37.22
1,-0.19,0.99,0.11,37.09
1,-0.27,0.98,0.13,38.66
1,-0.27,0.98,0.20,39.85
1,-0.15,0.98,0.20,39.82
1,-0.07,0.98,0.16,39.82
1,-0.10,0.99,0.03,37.83
1,-0.16,0.99,0.02,36.52
1,-0.19,0.99,0.02,36.52
1,-0.16,0.99,0.11,39.84
1,-0.16,0.99,0.15,40.19
1,-0.17,0.99,0.15,40.03
1,-0.15,0.98,0.13,36.11
1,-0.15,0.98,0.08,38.97
1,-0.13,0.98,0.08,38.53
1,-0.23,0.97,0.07,38.53
1,-0.25,0.98,0.12,38.76
1,-0.25,0.98,0.11,39.28
1,-0.17,0.98,0.17,39.28
1,-0.14,0.98,0.15,35.54
1,-0.14,0.98,0.12,37.18
1,-0.17,0.98,0.12,37.18
1,-0.18,0.99,0.10,36.70
1,-0.18,0.99,0.13,35.54
1,-0.19,0.99,0.13,35.21
1,-0.20,0.99,0.24,38.35
1,-0.20,0.98,0.33,35.46
1,-0.09,0.98,0.32,35.06
1,-0.09,0.95,0.32,35.06
1,-0.09,1.01,0.13,34.41
1,-0.15,1.01,0.13,38.67
1,-0.10,0.99,0.13,38.67
1,-0.03,1.02,0.11,37.61
1,-0.03,1.06,0.15,35.70
1,-0.03,1.00,0.15,35.40
1,-0.04,0.99,0.10,40.10
1,-0.04,1.02,-0.05,42.30
1,-0.01,1.02,-0.05,39.27
1,0.01,1.02,-0.11,39.27
1,0.02,1.03,-0.12,38.10
1,0.02,1.03,-0.09,34.94
2,-0.19,0.96,0.25,37.31
2,-0.24,0.96,0.25,40.51
2,-0.23,0.98,0.07,40.51
2,-0.21,0.99,0.01,38.51
2,-0.21,0.99,0.04,37.89
2,-0.11,1.01,0.10,37.89
2,-0.06,0.98,0.24,35.29
2,-0.06,0.98,0.21,34.69
2,-0.13,0.98,0.21,34.56
2,-0.22,0.99,0.18,37.69
2,-0.22,0.96,0.17,43.40
2,-0.29,0.96,0.17,38.67
2,-0.26,0.97,0.14,38.67
2,-0.26,0.97,0.12,37.29
2,-0.17,0.97,0.08,36.25
2,-0.16,0.99,0.08,36.25
2,-0.17,1.00,0.09,38.79
2,-0.17,1.00,0.09,38.40
2,-0.16,1.00,0.09,38.40
2,-0.10,0.99,0.02,36.55
2,-0.10,0.99,0.03,34.67
2,-0.09,0.99,0.03,34.55
2,-0.17,0.98,0.17,36.90
2,-0.17,0.98,0.22,34.77
2,-0.19,0.98,0.22,39.66
2,-0.14,1.00,0.15,39.66
2,-0.14,0.99,0.08,39.30
2,-0.14,0.99,0.09,37.81
2,-0.18,0.98,0.09,37.81
2,-0.17,0.98,0.08,38.42
2,-0.17,1.00,0.04,38.32
2,-0.14,1.00,0.04,38.34
2,-0.13,0.99,0.14,39.90
2,-0.13,0.98,0.23,34.84
2,-0.13,0.98,0.23,34.07
2,-0.15,0.98,0.22,34.07
2,-0.16,0.97,0.19,38.39
2,-0.16,0.97,0.15,35.62
2,-0.14,0.99,0.21,35.62
2,-0.10,0.99,0.24,36.46
2,-0.10,0.99,0.14,36.74
2,-0.05,0.98,0.14,36.74
2,-0.09,1.01,0.05,37.20
2,-0.09,1.05,0.13,35.51
2,-0.13,0.99,0.13,35.31
2,-0.13,0.98,0.22,39.23
2,-0.13,0.99,0.19,36.94
2,-0.11,0.99,0.19,35.94
2,-0.06,0.99,0.12,35.94
2,-0.08,1.00,0.16,37.67
2,-0.08,1.00,0.15,35.22
2,-0.13,0.98,0.28,35.22
2,-0.13,0.99,0.28,36.31
2,-0.13,0.99,0.18,38.46
2,-0.08,0.98,0.18,38.34
2,-0.09,0.99,0.13,37.56
2,-0.09,0.99,0.17,38.99
2,-0.13,0.99,0.17,39.04
2,-0.13,0.98,0.17,39.04
2,-0.13,1.00,0.11,35.61
2,-0.07,1.00,0.12,35.70
2,-0.10,0.99,0.18,35.70
2,-0.14,0.98,0.26,36.23
2,-0.14,0.98,0.18,36.34
2,-0.14,0.99,0.18,36.34
2,-0.08,0.98,0.07,38.42
2,-0.08,0.94,0.11,35.20
2,-0.12,1.00,0.11,35.54
2,-0.14,0.99,0.13,38.68
2,-0.14,0.98,0.08,39.45
2,-0.11,0.98,0.08,38.63
2,-0.09,1.00,0.07,38.63
2,-0.07,0.99,0.18,37.71
2,-0.13,0.99,0.26,36.72
2,-0.15,0.99,0.26,36.72
2,-0.11,0.98,0.16,35.32
2,-0.11,1.00,0.09,44.07
2,-0.07,1.00,0.09,44.18
2,-0.12,0.99,0.19,37.91
2,-0.12,0.97,0.25,36.78
2,-0.15,0.97,0.25,39.54
2,-0.11,1.00,0.17,39.54
2,-0.08,0.99,0.12,38.42
2,-0.08,0.99,0.08,34.15
2,-0.11,0.99,0.14,34.15
2,-0.14,0.98,0.22,38.69
2,-0.14,0.98,0.24,37.63
2,-0.15,0.97,0.24,37.63
2,-0.10,1.00,0.11,36.21
2,-0.10,1.00,0.07,37.34
2,-0.08,1.00,0.07,35.76
2,-0.12,1.00,0.17,35.76
2,-0.12,0.98,0.22,36.61
2,-0.16,0.98,0.24,34.08
2,-0.16,0.98,0.18,34.08
2,-0.15,1.00,0.08,37.15
2,-0.09,1.00,0.16,36.05
2,-0.10,0.99,0.16,36.05
2,-0.14,0.99,0.25,39.04
2,-0.14,0.98,0.24,39.49
2,-0.15,0.98,0.24,39.12
2,-0.16,0.98,0.18,39.91
2,-0.16,1.00,0.14,38.59
2,-0.13,1.00,0.14,38.70
2,-0.15,0.99,0.16,38.70
2,-0.16,0.98,0.16,39.26
2,-0.16,0.98,0.18,37.51
2,-0.19,0.98,0.18,37.51
2,-0.19,0.97,0.17,35.91
2,-0.19,0.97,0.17,36.36
2,-0.16,0.99,0.17,36.51
2,-0.15,0.98,0.18,34.94
2,-0.15,0.99,0.15,37.93
2,-0.14,0.99,0.15,40.13
2,-0.07,1.00,-0.00,40.13
2,-0.07,1.02,0.06,36.93
2,-0.05,1.02,0.10,38.62
2,-0.09,1.00,0.23,38.62
2,-0.11,0.97,0.23,38.23
2,-0.11,0.97,0.11,37.87
2,-0.08,0.99,0.11,37.87
2,-0.09,0.99,0.10,38.39
2,-0.09,1.00,0.23,36.16
2,-0.13,1.00,0.23,36.50
2,-0.15,0.98,0.25,35.71
2,-0.15,0.98,0.11,36.83
2,-0.09,0.98,0.11,37.61
2,-0.14,0.99,0.12,37.61
2,-0.14,0.97,0.22,38.77
2,-0.20,0.97,0.22,36.77
2,-0.18,0.98,0.16,36.77
2,-0.10,0.99,0.02,37.55
2,-0.10,0.99,0.07,39.52
2,-0.13,0.99,0.07,39.81
2,-0.14,1.00,0.16,39.02
2,-0.14,0.99,0.18,38.58
2,-0.14,0.99,0.18,36.57
2,-0.15,0.98,0.17,36.57
2,-0.15,0.98,0.18,40.02
2,-0.18,0.98,0.18,35.62
2,-0.17,0.97,0.18,35.62
2,-0.16,0.98,0.17,37.50
2,-0.16,0.98,0.24,35.79
2,-0.20,0.98,0.24,35.79
2,-0.21,0.98,0.27,36.60
2,-0.21,0.98,0.17,37.93
2,-0.16,0.98,0.17,37.57
2,-0.15,0.98,0.14,39.13
2,-0.15,0.98,0.22,38.15
2,-0.20,0.98,0.22,35.69
2,-0.22,0.96,0.26,35.69
2,-0.23,1.00,0.12,36.29
2,-0.11,1.00,0.06,37.02
2,-0.11,1.00,0.06,37.02
2,-0.14,0.99,0.15,35.13
2,-0.14,0.99,0.25,36.11
2,-0.18,0.98,0.25,36.18
2,-0.20,0.97,0.33,36.96
2,-0.20,0.98,0.27,37.01
2,-0.18,0.98,0.27,37.87
2,-0.20,0.98,0.25,37.87
2,-0.20,0.88,0.37,37.59
2,-0.34,0.88,0.33,34.57
2,-0.84,0.65,1.21,34.57
2,-0.89,-1.40,7.94,37.35
2,-0.89,-1.40,-8.00,38.26
2,2.55,1.24,-8.00,38.26
2,-0.08,2.42,-8.00,41.37
2,-0.08,2.38,-8.00,38.38
2,-0.37,0.75,-8.00,38.81
2,1.97,-0.54,7.94,34.90
2,1.97,-1.42,7.94,35.95
2,-0.73,-1.42,7.94,36.09
2,-1.23,0.36,6.88,36.09
2,-1.25,1.19,-8.00,34.41
2,1.44,1.19,-8.00,37.91
2,1.03,2.34,-8.00,37.91
2,-0.51,0.30,4.54,36.30
2,-0.51,0.30,7.94,37.16
2,-0.05,-1.10,7.94,36.96
2,0.67,0.50,7.94,37.74
2,0.67,0.48,-8.00,38.17
2,-1.07,1.60,-8.00,37.68
2,-1.43,2.50,-8.00,37.68
2,-1.39,1.31,-4.68,38.68
2,0.36,1.31,-4.63,38.15
2,0.49,0.40,7.94,38.15
2,-1.26,0.06,7.94,37.17
2,-1.26,0.06,-5.00,37.43
2,0.68,-0.15,-5.00,37.43
2,0.14,2.59,-8.00,35.32
2,0.14,2.60,-8.00,39.23
2,-1.24,1.41,-8.00,39.72
2,-0.47,-0.52,7.94,38.94
2,-0.47,-0.03,7.94,39.68
2,1.05,-0.03,7.94,38.98
2,-1.30,-0.69,7.94,38.98
2,-1.26,2.50,-8.00,37.37
2,-1.44,2.50,-8.00,35.58
2,0.32,1.76,-8.00,35.58
2,0.20,0.65,0.37,32.97
2,0.20,0.65,7.94,36.94
2,-0.78,-0.45,7.94,36.98
2,0.48,-0.75,7.94,40.11
2,0.48,2.25,-7.82,37.09
2,1.14,2.25,-7.82,41.17
2,-0.83,1.86,-8.00,41.17
2,-0.84,1.72,-6.81,35.53
2,-0.21,1.72,-6.75,36.69
2,2.11,0.97,7.94,36.69
2,-0.62,-1.05,7.94,36.11
2,-0.62,-1.05,0.93,36.98
2,-1.30,-0.75,0.93,36.98
2,0.75,1.79,-8.00,35.85
2,0.75,1.80,-8.00,36.58
2,0.28,2.23,-8.00,36.19
2,-0.12,0.20,5.33,35.41
2,-0.12,-0.53,7.94,38.54
2,1.44,-0.53,7.94,38.18
2,0.66,0.39,7.94,38.18
2,0.69,0.86,-8.00,41.66
2,-0.00,0.86,-8.00,39.12
2,-0.66,2.88,-8.00,39.12
2,0.65,0.61,-0.94,38.14
2,0.65,0.60,7.94,39.52
2,0.24,0.79,7.94,39.49
2,-0.84,-0.21,7.94,39.49
2,-0.84,0.35,-6.85,39.64
2,0.62,0.35,-6.85,39.64
2,-0.26,2.65,-8.00,39.64
2,-0.25,1.11,-8.00,38.21
2,-1.19,1.11,-7.94,39.10
2,-0.10,-0.03,7.94,39.10
3,-0.93,-0.46,7.94,37.48
3,0.17,-0.30,7.94,37.48
3,0.13,1.55,-8.00,40.13
3,0.25,1.55,-8.00,34.89
3,-0.92,1.84,-8.00,34.89
3,0.11,1.50,-5.05,36.78
3,0.11,1.50,7.94,39.37
3,1.83,-0.06,7.94,39.29
3,-0.75,-0.53,7.94,38.51
3,-0.75,-0.52,-3.74,36.79
3,0.34,0.23,-3.74,37.13
3,0.43,2.05,-8.00,37.13
3,0.43,2.22,-8.00,40.39
3,-0.03,2.22,-7.98,36.60
3,0.11,-0.13,6.71,36.60
3,0.09,-0.23,7.94,37.43
3,1.03,-0.23,7.94,43.72
3,-0.24,-0.01,7.94,43.72
3,-0.67,1.50,-8.00,36.56
3,-0.67,1.46,-8.00,35.84
3,-0.38,2.65,-8.00,35.22
3,0.63,0.36,0.82,35.22
3,0.63,0.29,7.94,36.64
3,-0.01,0.29,7.94,36.27
3,-0.52,-0.41,7.94,36.27
3,-0.52,1.45,-3.21,39.18
3,0.60,1.45,-3.25,37.97
3,-0.56,2.65,-8.00,37.97
3,-0.73,0.96,-5.98,34.98
3,-0.73,0.96,7.12,36.13
3,0.19,0.27,7.12,36.20
3,-0.46,-0.86,7.94,38.55
3,-0.46,-0.83,-3.31,36.67
3,-0.94,-0.27,-3.31,37.04
3,-0.43,2.09,-8.00,37.04
3,-0.40,1.65,-8.00,36.02
3,-0.03,1.65,-7.97,37.66
3,-0.20,0.72,3.84,37.66
3,0.19,-0.38,7.94,37.42
3,0.19,-0.38,7.94,36.88
3,-0.03,0.01,7.94,36.88
3,-0.18,1.51,-8.00,36.58
3,-0.18,1.56,-8.00,37.90
3,-0.59,2.06,-8.00,38.10
3,0.22,1.38,-3.02,34.97
3,0.22,0.95,7.94,36.38
3,0.83,0.95,7.94,39.17
3,-0.38,-0.13,7.94,39.17
3,-0.39,0.73,-7.20,40.20
3,1.11,0.73,-8.00,40.19
3,0.06,2.21,-8.00,40.19
3,-0.30,1.88,-8.00,35.93
3,-0.30,1.90,7.01,37.27
3,0.34,-0.10,7.01,37.14
3,0.77,-0.20,7.94,36.36
3,0.77,-0.18,7.64,35.52
3,-0.49,-0.18,7.64,39.72
3,-0.48,1.84,-8.00,39.72
3,-0.45,2.28,-8.00,38.32
3,-0.13,2.28,-7.96,38.85
3,0.29,0.51,1.16,38.85
3,0.02,-0.08,7.94,36.77
3,0.02,-0.08,7.94,39.03
3,-0.23,-0.38,7.94,38.35
3,0.35,1.60,-7.46,37.57
3,0.35,1.59,-8.00,38.55
3,-0.60,2.22,-8.00,36.85
3,-0.33,1.11,-4.87,36.85
3,-0.33,-0.24,7.94,36.06
3,0.25,-0.24,7.94,35.70
3,-0.56,-0.80,7.94,35.70
3,-0.60,-0.66,-3.36,37.71
3,-1.35,-0.66,-8.00,38.92
3,-0.24,1.89,-8.00,38.92
3,-0.23,1.68,-8.00,38.38
3,-0.23,1.66,4.76,40.56
3,-0.10,0.47,4.76,40.10
3,0.18,-0.34,7.94,36.19
3,0.18,0.43,7.64,39.61
3,0.23,0.43,7.64,38.53
3,-0.35,1.22,-8.00,38.53
3,-0.35,2.13,-8.00,33.56
3,-0.41,2.13,-7.96,36.69
3,0.17,1.02,-0.84,36.69
3,0.26,-0.35,7.94,38.31
3,0.26,-0.35,7.94,41.23
3,-0.20,0.07,7.94,40.75
3,-1.07,0.66,-6.27,36.05
3,-1.07,0.65,-8.00,34.20
3,0.10,2.46,-8.00,39.45
3,-0.25,1.51,-7.27,39.45
3,-0.25,-0.07,7.80,35.64
3,-0.03,-0.07,7.81,35.17
3,0.89,-0.29,7.94,35.17
3,0.88,0.11,5.77,35.91
3,-0.25,0.11,-8.00,38.34
3,0.20,1.60,-8.00,38.34
3,-0.14,1.97,-8.00,36.17
3,-0.14,1.98,2.35,38.60
3,0.17,0.54,2.35,38.78
3,0.38,-0.13,7.94,37.22
3,0.38,0.02,7.94,36.60
3,-0.13,0.02,7.94,37.84
3,-0.52,1.91,-7.97,37.84
3,-0.52,1.82,-8.00,37.92
3,-0.90,1.82,-7.96,40.75
3,-0.13,1.14,-2.71,40.75
3,0.26,0.01,7.94,38.56
3,0.26,0.01,7.94,41.14
3,-0.62,-0.85,7.94,41.35
3,-0.89,0.12,-3.80,36.65
3,-0.89,0.08,-8.00,38.59
3,-0.27,1.90,-8.00,40.56
3,0.03,2.37,-8.00,40.56
3,0.03,0.32,5.30,36.45
3,0.02,0.32,5.31,37.00
3,0.22,-0.34,7.94,37.00
3,0.21,0.62,6.94,37.36
3,-0.29,0.62,-8.00,36.43
3,-0.07,1.29,-8.00,36.43
3,-1.02,1.64,-8.00,36.79
3,-1.02,1.67,0.75,36.26
3,0.22,0.80,0.75,36.65
3,0.22,-0.06,7.94,37.44
3,0.22,-0.01,7.94,39.88
3,-0.21,-0.01,7.94,36.30
3,-0.30,1.46,-2.62,36.30
3,-0.30,2.00,-8.00,38.75
3,-0.68,2.00,-7.96,38.90
3,-0.12,1.28,-4.96,38.90
3,0.14,-0.01,7.94,38.15
3,0.14,-0.01,7.94,37.32
3,0.49,-0.00,7.94,37.39
3,-0.68,-0.23,1.03,40.52
3,-0.68,-0.21,-8.00,36.74
3,0.38,1.73,-8.00,42.24
3,0.34,2.29,-8.00,42.24
3,0.34,0.71,2.62,38.32
3,0.17,0.71,2.62,37.33
3,0.23,-0.23,7.94,37.33
3,0.07,0.18,7.50,40.20
3,0.07,0.18,-8.00,41.04
3,-0.61,1.65,-8.00,41.04
3,-1.73,1.19,-8.00,40.84
3,-1.73,1.19,-0.30,39.09
3,-0.10,1.13,-0.30,39.01
3,0.11,-0.15,7.94,39.79
3,0.11,-0.86,7.94,36.74
3,-1.08,-0.86,7.94,38.67
3,-0.47,0.74,-6.09,38.67
3,-0.47,1.45,-8.00,37.29
3,0.09,1.45,-8.00,41.00
3,-0.12,1.72,-8.00,41.00
3,0.18,0.23,5.34,38.93
3,0.18,0.23,7.94,39.82
3,0.41,-0.13,7.94,39.16
3,-0.23,0.44,3.77,40.73
3,-0.23,1.91,-8.00,39.76
3,-1.13,1.91,-8.00,39.06
3,-0.19,2.07,-8.00,39.06
3,-0.22,0.63,2.11,44.86
3,0.16,0.63,2.12,38.45
3,-0.04,-0.09,7.94,38.45
3,-0.97,-0.39,6.79,37.26
3,-0.97,-0.39,-8.00,37.34
3,-0.63,1.39,-8.00,37.34
3,1.22,2.37,-8.00,41.88
3,1.22,2.34,-2.49,39.87
3,-0.13,1.09,-2.49,39.10
3,0.18,-0.03,7.94,39.88
3,0.18,-0.06,7.94,39.12
3,0.59,-0.06,7.94,38.92
3,0.16,0.59,1.37,38.92
3,0.17,2.04,-8.00,37.27
3,0.42,2.04,-8.00,42.41
3,-0.02,1.55,-8.00,42.41
3,0.24,0.57,3.48,35.88
3,0.24,0.62,7.94,38.64
3,0.44,-0.07,7.94,38.57
3,0.18,0.60,4.96,39.35
3,0.18,2.19,-8.00,38.60
3,-0.73,2.19,-8.00,39.78
3,-0.38,1.95,-8.00,39.78
3,-0.43,1.07,-0.52,37.61
3,0.00,1.07,-0.50,41.87
3,0.30,-0.08,7.94,41.87
3,0.79,-0.10,7.94,37.91
3,0.79,-0.10,-2.40,36.48
3,-1.08,0.15,-2.40,36.53
3,0.70,1.63,-8.00,36.53
3,0.70,1.68,-5.35,41.36
3,-0.12,1.43,-5.35,43.03
3,0.24,-0.14,6.16,43.03
3,0.24,-0.10,7.94,40.21
3,0.40,-0.10,7.89,40.39
3,-0.15,0.51,2.02,40.39
3,-0.14,1.89,-8.00,39.70
3,-2.07,1.89,-8.00,37.85
3,-0.39,2.32,-8.00,37.85
3,0.23,0.61,2.67,36.18
3,0.23,0.57,7.94,36.32
3,0.26,0.01,7.94,36.04
3,-1.27,0.27,6.03,38.39
3,-1.27,1.15,-7.57,41.26
3,-0.60,1.15,-7.57,40.86
3,-0.40,2.17,-8.00,40.86
3,-0.38,0.25,-1.96,37.02
3,0.75,0.25,-1.94,42.72
3,0.05,0.24,7.94,42.72
3,0.35,-0.22,7.94,38.67
3,0.35,-0.22,0.59,35.48
3,0.04,0.67,0.59,35.25
3,-0.28,1.91,-8.00,36.03
3,-0.28,1.89,-6.70,37.47
3,0.32,0.89,-6.70,37.21
3,0.24,0.39,4.33,37.21
3,0.24,-0.16,7.94,38.52
3,-0.09,-0.16,7.92,40.19
3,-1.34,0.85,3.10,40.19
3,0.05,2.41,-8.00,37.27
3,0.05,2.41,-8.00,39.62
3,-0.56,2.44,-8.00,39.62
3,0.10,0.91,0.47,36.64
3,0.10,0.89,7.94,41.68
3,-0.04,-0.11,7.94,42.16
3,-1.26,0.44,7.94,37.46
3,-1.26,0.56,-3.33,39.10
3,-0.90,0.56,-3.33,39.50
3,-0.35,2.13,-8.00,39.50
3,-0.33,0.80,-3.18,36.62
3,0.17,0.80,-3.13,38.48
3,0.06,0.23,7.94,38.48
3,0.43,-0.11,7.94,37.54
4,-1.39,0.53,4.89,38.94
4,-1.42,1.43,-7.18,40.11
4,-1.05,1.43,-7.19,37.15
4,-0.15,2.01,-8.00,37.15
4,0.65,0.20,-1.50,36.35
4,0.65,0.20,7.94,36.25
4,-0.00,0.13,7.94,36.74
4,0.67,-0.17,7.94,37.52
4,0.67,-0.18,-1.76,37.51
4,-0.27,0.94,-1.76,37.50
4,-0.00,1.83,-8.00,37.50
4,-0.01,2.46,-3.72,35.39
4,-0.95,2.46,-3.70,35.88
4,0.09,0.48,5.67,35.88
4,0.33,-0.20,7.94,35.93
4,0.33,-0.20,2.10,36.44
4,-0.11,0.83,2.10,36.44
4,-1.48,1.30,-8.00,40.43
4,-1.48,1.31,-8.00,39.79
4,-0.13,2.06,-8.00,39.12
4,0.00,0.92,1.24,39.90
4,0.00,0.03,7.94,36.88
4,-0.08,0.03,7.94,36.91
4,-0.84,0.38,7.34,36.91
4,-0.87,1.05,-2.96,38.58
4,-0.25,1.05,-3.00,40.92
4,-0.33,1.98,-8.00,40.92
4,-0.47,1.63,-3.95,39.02
4,-0.47,1.69,7.46,36.80
4,0.08,0.25,7.46,37.07
4,0.55,0.09,7.94,38.64
4,0.55,0.75,0.13,39.59
4,-0.32,0.75,0.13,36.29
4,0.50,2.43,-8.00,36.29
4,0.48,1.80,-8.00,46.35
4,0.11,1.80,-7.99,35.16
4,0.12,0.64,3.51,35.16
4,0.19,0.01,7.94,34.71
4,0.19,0.01,4.26,42.22
4,-0.85,0.61,4.26,42.22
4,-1.59,1.04,-7.36,36.95
4,-1.59,1.05,-8.00,36.04
4,-0.21,1.86,-8.00,36.14
4,0.59,0.33,-0.91,38.49
4,0.59,0.13,7.94,41.75
4,-0.00,0.13,7.94,39.20
4,-0.43,0.24,7.94,39.20
4,-0.40,0.93,-1.52,37.86
4,-0.46,0.93,-8.00,37.97
4,-0.30,1.82,-8.00,37.97
4,-0.03,1.72,-4.29,36.87
4,-0.03,1.72,5.32,35.02
4,0.15,0.35,5.32,35.10
4,-0.03,-0.01,7.94,35.10
4,-0.03,0.69,1.99,37.23
4,-0.26,0.69,1.99,35.51
4,-0.20,1.54,-6.81,35.51
4,-0.22,1.78,-7.81,35.31
4,-0.10,1.78,-7.76,39.14
4,0.08,0.83,1.31,39.14
4,0.02,0.10,7.94,39.17
4,0.02,0.10,5.67,40.32
4,-1.48,0.75,5.67,40.41
4,-0.54,1.54,-4.18,34.93
4,-0.54,1.55,-8.00,36.57
4,-0.19,1.86,-8.00,38.43
4,-0.15,1.44,-2.17,38.43
4,-0.15,0.11,6.12,41.16
4,0.01,0.11,6.12,37.41
4,0.56,-0.07,7.94,37.41
4,0.61,0.76,-0.04,39.91
4,-0.39,0.76,-7.98,38.19
4,-0.26,1.76,-7.98,38.19
4,0.05,1.59,-6.27,36.44
4,0.05,1.59,3.16,35.96
4,0.04,0.78,3.16,35.84
4,0.04,0.11,7.94,34.27
4,0.04,0.86,3.63,35.33
4,-1.44,0.86,3.63,36.84
4,0.12,1.84,-5.73,36.84
4,0.11,1.72,-7.83,36.26
4,-0.14,1.72,-7.87,36.36
4,-0.00,1.23,-0.88,36.36
4,0.26,-0.17,7.40,39.40
4,0.26,-0.17,6.89,41.36
4,0.60,0.01,6.89,41.32
4,-1.11,0.50,-1.95,41.32
4,-1.11,0.44,-7.82,35.05
4,-0.25,1.69,-7.82,35.72
4,0.01,1.53,-4.57,35.72
4,0.06,0.55,5.19,38.68
4,0.18,0.55,5.19,37.68
4,0.20,0.09,7.94,37.68
4,-0.31,0.61,2.03,41.58
4,-0.31,0.61,-6.14,40.27
4,-0.33,1.51,-6.14,40.27
4,-0.11,1.70,-6.72,42.07
4,-0.11,1.72,1.19,39.19
4,0.02,0.84,1.19,39.10
4,0.06,0.26,7.70,36.75
4,0.06,0.62,5.25,36.34
4,-0.91,0.62,5.25,39.40
4,0.31,1.57,-2.91,39.40
4,0.28,1.79,-7.50,37.54
4,-0.22,1.79,-7.54,36.79
4,0.03,1.22,-2.66,36.79
4,0.12,0.41,5.88,41.67
4,0.12,0.41,7.16,41.92
4,0.34,0.05,7.16,41.50
4,-0.76,0.55,0.03,37.59
4,-0.76,0.54,-6.55,42.87
4,-0.29,1.60,-6.55,40.69
4,-0.05,1.54,-5.40,40.69
4,-0.05,0.77,2.47,40.26
4,0.05,0.77,2.50,40.98
4,-0.05,-0.07,7.37,40.98
4,-1.02,0.79,3.71,36.84
4,-1.02,0.79,-4.30,37.95
4,-0.31,1.38,-4.30,37.95
4,-0.18,1.69,-6.83,38.51
4,-0.18,1.70,-1.26,40.59
4,0.06,1.14,-1.26,40.08
4,0.16,0.28,6.86,38.51
4,0.16,0.40,6.02,37.47
4,0.00,0.40,6.02,38.98
4,-0.06,1.10,-0.63,38.98
4,-0.03,1.65,-6.64,40.43
4,-0.22,1.65,-6.67,37.98
4,-0.04,1.44,-4.17,37.98
4,0.03,0.61,3.67,39.25
4,0.03,0.61,6.88,36.74
4,-0.08,0.10,6.88,36.59
4,-0.98,0.60,2.08,38.94
4,-0.98,1.44,-4.90,38.80
4,-0.30,1.44,-4.90,39.66
4,-0.11,1.63,-6.06,39.66
4,-0.10,0.97,0.19,38.34
4,0.08,0.97,0.19,36.40
4,0.07,0.33,6.88,36.40
4,-0.15,0.50,4.98,40.78
4,-0.15,0.50,-2.49,36.79
4,-0.28,1.24,-2.49,36.79
4,-0.13,1.62,-6.38,38.91
4,-0.13,1.61,-2.93,40.24
4,0.02,1.30,-2.93,39.94
4,0.02,0.59,4.36,36.03
4,0.02,0.07,6.57,35.49
4,-0.26,0.07,6.57,36.80
4,-0.18,0.30,1.17,36.80
4,-0.14,1.50,-5.19,35.41
4,-0.20,1.50,-5.21,35.35
4,-0.04,1.49,-5.15,35.35
4,0.03,0.88,1.32,37.26
4,0.03,0.88,6.47,38.25
4,-0.23,0.58,6.47,38.27
4,-0.31,0.65,3.63,38.27
4,-0.31,1.23,-2.93,37.44
4,-0.21,1.23,-2.93,39.62
4,-0.11,1.59,-5.99,39.62
4,-0.11,1.18,-1.73,35.54
4,-0.05,1.18,-1.70,36.13
4,-0.03,0.49,4.86,36.13
4,-0.18,0.41,5.30,42.65
4,-0.18,0.41,-0.10,43.89
4,-0.58,1.25,-0.10,43.89
4,-0.17,1.53,-5.33,40.44
4,-0.17,1.53,-4.14,37.16
4,-0.09,1.41,-4.14,37.46
4,0.02,0.75,2.32,35.89
4,0.02,0.55,6.02,40.35
4,-0.19,0.55,6.02,41.92
4,-0.13,0.44,2.64,41.92
4,-0.15,1.33,-3.54,39.85
4,-0.21,1.33,-3.54,34.36
4,-0.10,1.53,-5.35,34.36
4,-0.04,1.05,-0.60,37.84
4,-0.04,1.02,5.07,35.48
4,-0.01,0.52,5.07,35.35
4,-0.11,0.47,4.63,37.70
4,-0.11,1.35,-1.10,37.14
4,-0.38,1.35,-1.10,34.38
4,-0.15,1.50,-5.13,34.38
4,-0.17,1.31,-3.14,37.18
4,-0.05,1.31,-3.18,41.92
4,0.03,0.71,3.01,41.92
4,-0.14,0.45,5.54,38.59
4,-0.14,0.45,1.51,40.28
4,-0.27,0.78,1.51,40.28
4,-0.23,1.33,-3.80,34.92
4,-0.23,1.35,-4.68,37.44
4,-0.11,1.48,-4.68,37.24
4,0.00,0.96,0.37,41.16
4,0.00,0.51,5.08,41.41
4,-0.01,0.51,5.08,36.16
4,-0.28,0.61,3.65,36.16
4,-0.31,1.10,-1.75,38.06
4,-0.31,1.10,-4.88,40.42
4,-0.13,1.50,-4.88,40.42
4,-0.04,1.19,-2.10,37.04
4,-0.04,1.23,3.47,37.37
4,0.02,0.67,3.47,37.11
4,-0.17,0.52,4.86,37.11
4,-0.17,0.86,0.63,36.02
4,-0.33,0.86,0.63,44.29
4,-0.22,1.38,-3.96,44.29
4,-0.24,1.37,-3.83,42.90
4,-0.05,1.37,-3.86,40.39
4,0.03,0.90,1.14,40.39
4,-0.08,0.53,4.88,35.96
4,-0.08,0.53,2.75,36.02
4,-0.32,0.67,2.75,36.48
4,-0.26,1.20,-2.31,38.04
4,-0.26,1.24,-4.40,38.77
4,-0.06,1.43,-4.40,36.69
4,-0.01,1.12,-1.22,36.69
4,-0.01,0.63,3.78,39.14
4,-0.00,0.63,3.76,36.44
4,-0.24,0.58,4.14,36.44
4,-0.19,0.97,-0.22,37.31
4,-0.32,0.97,-3.86,37.68
4,-0.13,1.36,-3.86,37.68
4,-0.02,1.31,-3.03,38.99
4,-0.02,1.31,1.85,36.73
4,-0.01,0.81,1.85,36.43
4,-0.16,0.57,4.51,33.30
4,-0.16,0.77,1.82,36.45
4,-0.32,0.77,1.82,35.89
4,-0.20,1.21,-2.59,35.89
4,-0.23,1.41,-3.91,35.83
4,-0.04,1.41,-3.88,36.71
4,-0.04,1.01,-0.31,36.71
4,-0.09,0.63,3.81,37.25
4,-0.09,0.63,3.34,41.11
5,-0.13,0.85,1.02,37.61
5,-0.26,0.85,-2.77,39.94
5,-0.15,1.26,-2.77,39.94
5,-0.06,1.31,-3.20,36.71
5,-0.06,1.29,0.37,37.42
5,-0.08,0.98,0.37,37.19
5,-0.10,0.64,3.73,42.67
5,-0.10,0.73,2.55,37.21
5,-0.21,0.73,2.55,39.01
5,-0.20,1.10,-1.33,39.01
5,-0.22,1.32,-3.38,37.16
5,-0.10,1.32,-3.40,36.20
5,-0.10,1.15,-1.40,36.20
5,-0.07,0.74,2.60,39.23
5,-0.07,0.74,3.41,36.88
5,-0.16,0.67,3.41,36.81
5,-0.23,0.92,0.36,39.94
5,-0.23,0.94,-2.77,39.96
5,-0.16,1.25,-2.77,40.29
5,-0.11,1.28,-2.61,40.29
5,-0.11,0.91,0.97,40.99
5,-0.08,0.91,0.95,36.91
5,-0.09,0.67,3.45,36.91
5,-0.09,0.78,1.90,38.42
5,-0.22,0.78,-1.61,39.23
5,-0.22,1.12,-1.61,39.23
5,-0.13,1.31,-3.05,36.62
5,-0.13,1.31,-0.71,40.30
5,-0.08,1.06,-0.71,40.36
5,-0.05,0.75,2.66,38.01
5,-0.05,0.70,2.92,36.37
5,-0.18,0.70,2.92,39.34
5,-0.25,0.98,-0.14,39.34
5,-0.23,1.27,-2.72,39.14
5,-0.17,1.27,-2.69,39.40
5,-0.08,1.20,-2.01,39.40
5,-0.03,0.89,1.33,39.27
5,-0.03,0.89,3.21,42.97
5,-0.11,0.67,3.21,42.97
5,-0.25,0.85,1.30,38.57
5,-0.25,0.85,-1.80,37.93
5,-0.21,1.16,-1.80,35.79
5,-0.08,1.27,-2.65,35.79
5,-0.08,1.03,-0.18,40.58
5,-0.04,1.03,-0.13,41.53
5,-0.07,0.73,2.74,41.53
5,-0.10,0.77,2.36,35.54
5,-0.23,0.77,-0.54,37.83
5,-0.25,1.03,-0.54,37.83
5,-0.12,1.25,-2.59,37.17
5,-0.12,1.21,-1.47,38.06
5,-0.05,1.15,-1.47,37.70
5,-0.06,0.82,1.68,36.13
5,-0.06,0.73,2.82,37.58
5,-0.19,0.73,2.82,36.74
5,-0.26,0.89,0.76,36.74
5,-0.28,1.17,-1.93,36.28
5,-0.15,1.17,-1.89,37.75
5,-0.06,1.22,-2.20,37.75
5,-0.07,0.96,0.36,37.90
5,-0.07,0.96,2.63,37.57
5,-0.14,0.76,2.63,38.00
5,-0.25,0.81,1.82,38.00
5,-0.25,0.82,-0.93,38.15
5,-0.20,1.07,-0.93,43.19
5,-0.07,1.22,-2.31,43.19
5,-0.07,1.08,-0.82,39.28
5,-0.08,1.08,-0.82,37.13
5,-0.12,0.83,1.87,37.13
5,-0.08,0.77,2.37,36.21
5,-0.20,0.77,0.15,40.69
5,-0.20,0.97,0.15,40.69
5,-0.10,1.17,-1.91,40.89
5,-0.10,1.15,-1.60,36.47
5,-0.07,1.15,-1.60,36.49
5,-0.12,0.94,0.82,34.92
5,-0.12,0.78,2.37,36.25
5,-0.16,0.78,2.37,38.78
5,-0.18,0.89,1.11,38.78
5,-0.14,1.09,-1.18,36.55
5,-0.14,1.09,-1.18,39.47
5,-0.10,1.18,-1.87,39.47
5,-0.13,1.03,-0.15,37.22
5,-0.13,1.03,1.93,37.24
5,-0.13,0.82,1.93,37.47
5,-0.17,0.83,1.68,36.68
5,-0.17,0.82,-0.31,39.64
5,-0.17,1.01,-0.31,38.42
5,-0.12,1.16,-1.71,38.42
5,-0.12,1.09,-0.90,38.94
5,-0.15,1.09,-0.88,39.49
5,-0.13,0.90,1.19,39.49
5,-0.12,0.83,1.86,40.59
5,-0.12,0.83,0.45,36.60
5,-0.17,0.93,0.45,36.60
5,-0.15,1.10,-1.26,38.25
5,-0.15,1.07,-1.30,38.24
5,-0.14,1.13,-1.30,37.64
5,-0.13,0.97,0.37,36.85
5,-0.13,0.85,1.70,36.96
5,-0.10,0.85,1.70,38.43
5,-0.15,0.89,1.07,38.43
5,-0.18,1.05,-0.61,40.37
5,-0.18,1.05,-0.56,37.28
5,-0.16,1.13,-1.31,37.28
5,-0.14,1.04,-0.32,35.35
5,-0.14,1.04,1.26,42.03
5,-0.08,0.88,1.26,41.82
5,-0.13,0.86,1.43,38.69
5,-0.13,0.99,0.07,38.92
5,-0.19,0.99,0.07,38.89
5,-0.18,1.10,-1.09,38.89
5,-0.17,1.09,-0.85,39.81
5,-0.11,1.09,-0.87,39.61
5,-0.07,0.94,0.63,39.61
5,-0.12,0.87,1.46,38.21
5,-0.12,0.87,0.67,35.87
5,-0.19,0.93,0.67,35.87
5,-0.19,1.06,-0.68,39.00
5,-0.19,1.06,-1.10,35.75
5,-0.13,1.12,-1.10,35.86
5,-0.06,0.99,-0.01,35.08
5,-0.06,0.88,1.22,38.40
5,-0.10,0.88,1.23,35.67
5,-0.20,0.89,1.11,35.67
5,-0.21,1.01,-0.11,39.91
5,-0.21,1.01,-1.03,37.33
5,-0.12,1.11,-1.03,37.33
5,-0.08,1.04,-0.53,37.37
5,-0.08,1.05,0.75,36.35
5,-0.11,0.93,0.75,35.99
5,-0.18,0.88,1.28,36.77
5,-0.18,0.96,0.44,37.19
5,-0.22,0.96,0.44,38.99
5,-0.14,1.06,-0.73,38.99
5,-0.14,1.08,-0.85,38.25
5,-0.07,1.08,-0.82,40.28
5,-0.10,0.99,0.18,40.28
5,-0.17,0.89,1.16,37.95
5,-0.17,0.89,0.85,38.53
5,-0.21,0.92,0.85,38.33
5,-0.14,1.02,-0.28,37.55
5,-0.14,1.01,-0.88,35.64
5,-0.08,1.07,-0.88,38.88
5,-0.10,1.04,-0.31,38.88
5,-0.10,0.92,0.84,37.40
5,-0.15,0.92,0.84,42.87
5,-0.19,0.90,1.09,42.87
5,-0.22,0.98,0.22,37.65
5,-0.15,0.98,-0.70,36.14
5,-0.08,1.06,-0.70,36.14
5,-0.10,1.07,-0.65,36.19
5,-0.10,1.09,0.38,40.11
5,-0.16,0.97,0.38,40.00
5,-0.18,0.91,1.07,39.22
5,-0.18,0.94,0.64,40.43
5,-0.14,0.94,0.64,37.64
5,-0.09,1.02,-0.36,37.64
5,-0.11,1.08,-0.78,37.49
5,-0.11,1.08,-0.76,38.85
5,-0.16,1.00,-0.08,38.85
5,-0.18,0.93,0.83,37.15
5,-0.18,0.93,0.91,34.91
5,-0.14,0.91,0.91,35.13
5,-0.09,0.98,0.07,39.83
5,-0.09,0.94,-0.68,36.81
5,-0.12,1.07,-0.68,34.91
5,-0.17,1.04,-0.44,34.91
5,-0.17,0.97,0.47,37.54
5,-0.18,0.97,0.49,38.91
5,-0.12,0.91,0.99,38.91
5,-0.10,0.93,0.48,39.37
5,-0.10,0.93,-0.41,39.14
5,-0.13,1.03,-0.41,39.14
5,-0.18,1.06,-0.63,37.70
5,-0.18,1.02,0.06,36.29
5,-0.17,1.02,0.06,36.75
5,-0.10,0.92,0.84,36.75
5,-0.10,0.92,0.76,35.39
5,-0.09,0.92,0.76,39.77
5,-0.13,1.00,-0.05,39.77
5,-0.13,1.06,-0.62,38.70
5,-0.19,1.06,-0.62,43.18
5,-0.17,1.04,-0.31,43.18
5,-0.09,0.94,0.55,40.28
5,-0.09,0.94,0.88,38.52
5,-0.08,0.91,0.88,39.06
5,-0.15,0.97,0.35,40.63
5,-0.15,0.97,-0.42,37.07
5,-0.19,1.03,-0.42,36.53
5,-0.17,1.07,-0.53,36.53
5,-0.17,0.99,0.18,39.60
5,-0.09,0.99,0.19,38.00
5,-0.08,0.91,0.81,38.00
5,-0.15,0.93,0.67,39.85
5,-0.15,0.93,-0.12,34.76
5,-0.20,1.01,-0.12,34.76
5,-0.16,1.06,-0.60,42.55
5,-0.16,1.08,-0.18,39.77
5,-0.08,1.01,-0.18,39.46
5,-0.07,0.94,0.58,37.11
5,-0.07,0.92,0.83,38.79
5,-0.16,0.92,0.83,41.48
5,-0.21,0.98,0.22,41.48
5,-0.23,1.05,-0.47,38.15
5,-0.17,1.05,-0.50,43.41
5,-0.08,1.04,-0.44,43.41
5,-0.07,0.98,0.27,39.76
5,-0.07,0.98,0.84,40.70
5,-0.15,0.91,0.84,40.82
5,-0.21,0.96,0.55,37.69
5,-0.21,0.96,-0.21,43.96
5,-0.17,1.02,-0.21,36.49
5,-0.08,1.05,-0.55,36.49
5,-0.08,1.01,-0.05,38.35
5,-0.08,1.01,-0.00,38.72
5,-0.15,0.92,0.69,38.72
5,-0.21,0.94,0.75,41.95
5,-0.21,0.94,0.10,41.18
5,-0.17,0.99,0.10,41.18
5,-0.08,1.05,-0.51,38.99
5,-0.08,1.04,-0.34,39.69
5,-0.07,1.04,-0.34,39.79
5,-0.15,0.96,0.41,41.35
5,-0.15,0.94,0.80,39.16
5,-0.21,0.94,0.80,38.38
5,-0.16,0.96,0.41,38.38
5,-0.15,1.03,-0.32,40.83
5,-0.09,1.03,-0.36,39.15
5,-0.09,1.05,-0.49,39.15
5,-0.15,0.99,0.10,39.83
5,-0.15,0.95,0.71,39.29
5,-0.20,0.95,0.71,39.37
6,-0.15,0.92,0.25,39.14
6,-0.08,0.97,0.25,39.14
6,-0.10,1.03,-0.36,37.35
6,-0.10,1.04,-0.39,40.48
6,-0.15,1.04,-0.39,40.09
6,-0.19,1.00,0.22,40.09
6,-0.19,0.94,0.71,36.13
6,-0.15,0.94,0.71,39.20
6,-0.09,0.95,0.50,39.20
6,-0.10,1.00,-0.11,36.85
6,-0.10,1.00,-0.12,35.43
6,-0.17,1.04,-0.43,35.43
6,-0.19,1.02,-0.05,35.80
6,-0.19,1.02,0.54,39.98
6,-0.14,0.95,0.54,40.39
6,-0.07,0.93,0.65,37.26
6,-0.07,0.92,0.16,36.96
6,-0.11,0.98,0.16,38.80
6,-0.18,1.03,-0.36,38.80
6,-0.18,1.03,-0.27,37.09
6,-0.19,1.03,-0.26,39.46
6,-0.13,0.98,0.30,39.46
6,-0.14,0.93,0.66,37.52
6,-0.07,0.93,0.41,39.89
6,-0.11,0.95,0.41,39.89
6,-0.18,1.02,-0.18,36.24
6,-0.18,1.04,-0.38,39.07
6,-0.20,1.04,-0.38,38.78
6,-0.12,1.01,0.02,39.56
6,-0.12,0.94,0.56,40.67
6,-0.06,0.94,0.56,37.76
6,-0.12,0.93,0.59,37.76
6,-0.08,1.00,0.07,40.51
6,-0.20,1.00,0.10,39.59
6,-0.20,1.04,-0.34,39.59
6,-0.12,1.04,-0.20,40.14
6,-0.12,1.04,0.36,38.97
6,-0.06,0.95,0.36,38.86
6,-0.12,0.94,0.66,37.29
6,-0.12,0.98,0.32,40.45
6,-0.20,0.98,0.32,38.87
6,-0.20,1.02,-0.21,38.87
6,-0.23,1.05,-0.36,38.15
6,-0.11,1.05,-0.33,38.29
6,-0.05,0.97,0.11,38.29
6,-0.12,0.94,0.59,38.96
6,-0.12,0.94,0.52,38.75
6,-0.20,0.96,0.52,38.75
6,-0.19,1.00,0.01,39.45
6,-0.19,0.99,-0.39,37.21
6,-0.12,1.05,-0.39,36.79
6,-0.06,1.00,-0.11,34.44
6,-0.06,0.96,0.44,36.80
6,-0.12,0.96,0.44,35.36
6,-0.20,0.95,0.64,35.36
6,-0.19,0.98,0.24,38.61
6,-0.19,0.98,0.20,37.27
6,-0.11,1.04,-0.30,37.27
6,-0.06,1.01,-0.28,37.82
6,-0.06,1.04,0.22,38.97
6,-0.13,0.98,0.22,38.45
6,-0.20,0.95,0.63,40.02
6,-0.20,0.96,0.44,39.06
6,-0.18,0.96,0.44,37.87
6,-0.11,1.02,-0.12,37.87
6,-0.07,1.02,-0.35,38.79
6,-0.07,1.02,-0.32,40.50
6,-0.12,1.01,-0.01,40.50
6,-0.20,0.96,0.52,39.04
6,-0.20,0.96,0.57,37.03
6,-0.19,0.95,0.57,37.03
6,-0.11,0.99,0.10,39.22
6,-0.11,0.96,-0.31,36.49
6,-0.07,1.02,-0.31,36.15
6,-0.14,1.03,-0.19,37.72
6,-0.14,0.97,0.34,37.35
6,-0.20,0.97,0.34,37.13
6,-0.18,0.95,0.61,37.13
6,-0.17,0.97,0.32,37.67
6,-0.11,0.97,-0.18,40.04
6,-0.08,1.01,-0.18,40.04
6,-0.13,1.03,-0.30,40.73
6,-0.13,1.05,0.13,40.46
6,-0.20,0.99,0.13,40.02
6,-0.17,0.96,0.53,41.59
6,-0.17,0.95,0.48,38.87
6,-0.09,0.95,0.48,37.37
6,-0.08,0.98,0.01,37.37
6,-0.08,1.03,-0.30,41.58
6,-0.14,1.03,-0.26,40.88
6,-0.19,1.01,-0.07,40.88
6,-0.16,0.98,0.38,40.54
6,-0.16,0.98,0.54,41.58
6,-0.10,0.94,0.54,42.16
6,-0.08,0.97,0.21,41.38
6,-0.08,0.96,-0.20,38.58
6,-0.15,1.03,-0.20,40.88
6,-0.20,1.02,-0.20,40.88
6,-0.20,0.99,0.19,37.50
6,-0.16,0.99,0.15,36.57
6,-0.09,0.95,0.52,36.57
6,-0.08,0.95,0.39,41.51
6,-0.08,0.95,-0.04,43.02
6,-0.16,1.01,-0.04,43.02
6,-0.21,1.03,-0.24,42.66
6,-0.21,1.00,-0.01,38.20
6,-0.15,1.00,-0.01,38.00
6,-0.08,0.96,0.41,39.57
6,-0.08,0.94,0.49,41.17
6,-0.08,0.94,0.49,39.16
6,-0.17,0.99,0.16,39.16
6,-0.15,1.03,-0.19,38.13
6,-0.21,1.03,-0.23,39.68
6,-0.15,1.02,-0.17,39.68
6,-0.08,0.98,0.24,35.64
6,-0.08,0.98,0.51,38.12
6,-0.08,0.94,0.51,37.81
6,-0.17,0.97,0.34,35.46
6,-0.17,0.96,-0.07,39.75
6,-0.22,1.02,-0.07,37.00
6,-0.15,1.02,-0.23,37.00
6,-0.15,1.00,0.06,38.27
6,-0.07,1.00,0.06,36.28
6,-0.08,0.95,0.43,36.28
6,-0.17,0.95,0.47,38.25
6,-0.17,0.95,0.09,35.71
6,-0.22,1.00,0.09,35.71
6,-0.14,1.02,-0.23,37.88
6,-0.14,1.01,-0.11,38.00
6,-0.07,1.01,-0.11,37.61
6,-0.09,0.97,0.29,41.52
6,-0.09,0.94,0.53,39.51
6,-0.18,0.94,0.53,38.60
6,-0.22,0.99,0.27,38.60
6,-0.21,1.01,-0.14,38.17
6,-0.14,1.01,-0.16,35.75
6,-0.06,1.02,-0.22,35.75
6,-0.09,0.99,0.13,37.51
6,-0.09,0.94,0.50,37.75
6,-0.17,0.94,0.50,37.93
6,-0.22,0.98,0.42,37.93
6,-0.22,1.00,0.01,39.72
6,-0.14,1.00,0.01,40.97
6,-0.06,1.01,-0.25,40.97
6,-0.04,1.01,-0.04,39.76
6,-0.10,1.01,-0.05,39.48
6,-0.18,0.95,0.39,39.48
6,-0.21,0.97,0.50,37.56
6,-0.21,0.97,0.18,35.93
6,-0.14,0.98,0.18,35.93
6,-0.07,1.01,-0.19,38.52
6,-0.07,1.02,-0.16,40.97
6,-0.10,1.02,-0.16,40.86
6,-0.17,0.97,0.23,41.65
6,-0.17,0.97,0.50,36.46
6,-0.21,0.97,0.50,42.35
6,-0.14,0.98,0.33,42.35
6,-0.13,1.00,-0.07,38.31
6,-0.06,1.00,-0.22,42.64
6,-0.11,1.02,-0.22,42.64
6,-0.19,1.00,0.07,40.92
6,-0.19,0.97,0.42,41.13
6,-0.20,0.97,0.42,40.95
6,-0.13,0.96,0.43,38.60
6,-0.13,0.98,0.09,36.40
6,-0.07,0.98,0.09,35.43
6,-0.10,1.02,-0.18,35.43
6,-0.06,1.02,-0.07,36.02
6,-0.19,1.02,-0.09,37.66
6,-0.20,0.98,0.29,37.66
6,-0.12,0.97,0.46,34.20
6,-0.12,0.97,0.23,41.49
6,-0.06,0.96,0.23,41.49
6,-0.11,1.00,-0.09,37.63
6,-0.11,0.97,-0.14,38.72
6,-0.20,1.03,-0.14,38.82
6,-0.19,0.99,0.15,41.18
6,-0.19,0.96,0.42,39.77
6,-0.12,0.96,0.41,37.59
6,-0.06,0.96,0.35,37.59
6,-0.11,0.98,0.05,39.62
6,-0.11,0.98,-0.15,37.38
6,-0.20,1.03,-0.15,37.38
6,-0.20,1.00,0.01,38.31
6,-0.20,1.04,0.30,39.89
6,-0.10,0.97,0.30,40.36
6,-0.06,0.96,0.40,38.01
6,-0.06,0.96,0.20,38.32
6,-0.12,0.96,0.20,37.19
6,-0.21,1.02,-0.09,37.19
6,-0.19,1.02,-0.10,38.99
6,-0.19,1.02,-0.08,37.08
6,-0.09,0.98,0.17,37.08
6,-0.06,0.96,0.40,37.86
6,-0.06,0.96,0.32,40.46
6,-0.13,0.96,0.32,40.13
6,-0.21,1.00,0.03,38.56
6,-0.21,1.03,-0.14,38.07
6,-0.20,1.03,-0.14,38.72
6,-0.08,0.99,0.02,38.72
6,-0.08,0.96,0.32,38.77
6,-0.05,0.96,0.34,41.33
6,-0.15,0.96,0.41,41.33
6,-0.15,0.99,0.16,37.68
6,-0.21,0.99,-0.10,41.98
6,-0.19,1.03,-0.10,41.98
6,-0.09,1.01,-0.08,40.62
6,-0.09,1.02,0.21,37.63
6,-0.05,0.96,0.21,38.27
6,-0.15,0.98,0.42,35.92
6,-0.15,0.97,0.29,40.81
6,-0.21,0.97,0.29,41.19
6,-0.18,1.01,-0.02,41.19
6,-0.15,1.03,-0.15,40.47
6,-0.09,1.03,-0.18,37.98
6,-0.06,0.96,0.07,37.98
6,-0.15,0.98,0.38,38.13
6,-0.15,0.98,0.40,37.47
6,-0.21,0.97,0.40,37.38
6,-0.17,0.98,0.10,40.51
6,-0.17,0.97,-0.15,36.49
6,-0.09,1.03,-0.15,40.02
6,-0.06,0.98,-0.04,40.02
6,-0.06,0.98,0.28,38.93
6,-0.14,0.98,0.25,38.73
6,-0.22,0.97,0.44,38.73
6,-0.23,0.97,0.23,40.55
6,-0.17,0.97,-0.09,35.67
6,-0.09,1.03,-0.09,35.67
6,-0.06,1.00,-0.12,39.23
6,-0.06,0.98,0.16,36.09
6,-0.15,0.98,0.16,36.19
6,-0.22,0.98,0.42,38.54
7,-0.17,0.96,0.39,37.00
7,-0.08,0.98,0.14,38.57
7,-0.08,1.01,-0.11,36.05
7,-0.08,1.01,-0.11,42.15
7,-0.15,0.99,-0.05,42.15
7,-0.15,0.99,0.23,40.48
7,-0.21,0.99,0.20,38.94
7,-0.16,0.97,0.39,38.94
7,-0.07,0.97,0.25,36.14
7,-0.07,0.97,-0.02,36.96
7,-0.08,1.00,-0.02,36.96
7,-0.16,1.01,-0.09,40.83
7,-0.16,1.00,0.11,38.86
7,-0.21,1.00,0.11,38.36
7,-0.16,0.98,0.34,38.36
7,-0.16,0.96,0.32,38.61
7,-0.06,0.96,0.32,39.61
7,-0.08,0.98,0.09,39.61
7,-0.11,1.01,-0.08,38.56
7,-0.17,1.01,0.02,38.01
7,-0.21,1.01,0.02,38.01
7,-0.14,0.99,0.24,37.51
7,-0.14,0.96,0.35,37.04
7,-0.07,0.96,0.35,36.81
7,-0.08,0.96,0.20,40.73
7,-0.08,1.01,-0.02,37.15
7,-0.18,1.01,-0.02,38.49
7,-0.22,1.01,-0.05,38.49
7,-0.20,0.99,0.13,39.53
7,-0.14,0.99,0.13,37.65
7,-0.07,0.98,0.32,37.65
7,-0.08,0.95,0.29,36.96
7,-0.08,0.95,0.08,39.28
7,-0.19,1.00,0.08,39.25
7,-0.22,1.02,-0.06,37.69
7,-0.22,1.05,0.03,35.56
7,-0.13,0.99,0.03,44.80
7,-0.07,0.98,0.24,44.80
7,-0.07,0.95,0.33,37.41
7,-0.09,0.95,0.32,37.15
7,-0.19,0.98,0.19,37.15
7,-0.23,1.02,-0.03,40.07
7,-0.23,1.02,-0.05,37.46
7,-0.12,1.00,-0.05,37.46
7,-0.06,0.99,0.15,36.45
7,-0.06,0.96,0.33,37.78
7,-0.10,0.96,0.33,38.12
7,-0.19,0.96,0.29,38.12
7,-0.19,1.02,0.05,38.79
7,-0.22,1.02,0.05,36.95
7,-0.12,0.99,-0.07,36.95
7,-0.12,0.99,0.05,41.86
7,-0.05,0.99,0.03,38.00
7,-0.11,0.98,0.28,38.00
7,-0.19,0.95,0.35,38.87
7,-0.19,0.95,0.15,35.40
7,-0.22,1.01,0.15,35.91
7,-0.12,1.00,-0.06,39.83
7,-0.12,0.99,-0.04,37.18
7,-0.05,0.99,-0.04,40.20
7,-0.11,0.99,0.19,40.20
7,-0.11,0.95,0.37,37.50
7,-0.20,0.95,0.37,41.09
7,-0.21,0.99,0.25,41.09
7,-0.24,1.01,-0.00,39.65
7,-0.12,1.01,-0.08,48.02
7,-0.06,0.99,-0.08,48.02
7,-0.11,1.00,0.10,35.99
7,-0.11,1.04,0.34,38.51
7,-0.20,0.98,0.34,38.58
7,-0.20,0.97,0.32,37.01
7,-0.20,1.00,0.08,43.33
7,-0.12,1.00,0.08,42.70
7,-0.05,1.00,-0.09,42.70
7,-0.05,0.99,0.02,42.19
7,-0.11,0.99,0.02,43.44
7,-0.21,0.99,0.27,43.44
7,-0.20,0.96,0.35,36.97
7,-0.20,0.96,0.18,37.90
7,-0.11,0.99,0.18,38.28
7,-0.06,1.00,-0.05,36.71
7,-0.06,1.05,-0.04,35.18
7,-0.11,0.99,-0.04,35.67
7,-0.20,1.00,0.18,35.67
7,-0.20,0.98,0.34,37.26
7,-0.20,0.98,0.32,37.60
7,-0.10,0.97,0.25,37.60
7,-0.12,1.00,0.03,40.43
7,-0.05,1.00,-0.05,37.15
7,-0.13,0.99,-0.05,37.15
7,-0.21,1.00,0.09,36.43
7,-0.21,1.06,0.28,35.24
7,-0.19,0.99,0.28,35.80
7,-0.09,0.96,0.30,42.85
7,-0.09,0.99,0.11,38.04
7,-0.06,0.99,0.11,36.87
7,-0.13,0.99,-0.03,36.87
7,-0.14,1.00,0.03,36.95
7,-0.21,1.00,0.02,39.42
7,-0.20,1.00,0.21,39.42
7,-0.10,0.96,0.30,39.31
7,-0.10,0.96,0.20,40.38
7,-0.06,0.97,0.20,40.43
7,-0.14,1.00,0.03,38.86
7,-0.14,1.06,-0.01,39.30
7,-0.21,1.00,-0.01,38.70
7,-0.18,1.00,0.13,38.70
7,-0.18,0.98,0.27,37.20
7,-0.09,0.98,0.26,39.06
7,-0.05,0.95,0.26,39.06
7,-0.02,1.00,0.11,39.68
7,-0.15,1.00,0.00,36.62
7,-0.22,1.01,0.00,36.62
7,-0.18,0.99,0.05,42.25
7,-0.18,1.00,0.20,36.45
7,-0.09,1.00,0.20,36.37
7,-0.04,0.96,0.29,37.93
7,-0.04,0.98,0.20,39.58
7,-0.15,0.98,0.20,37.68
7,-0.23,1.02,0.04,37.68
7,-0.23,0.99,0.01,39.71
7,-0.17,0.99,0.06,34.88
7,-0.07,1.00,0.12,34.88
7,-0.07,0.97,0.26,38.08
7,-0.07,0.96,0.26,42.47
7,-0.14,0.96,0.26,42.60
7,-0.22,1.01,0.11,35.55
7,-0.22,1.00,-0.01,37.79
7,-0.17,1.00,-0.01,41.58
7,-0.07,0.99,0.04,41.58
7,-0.07,0.98,0.21,41.09
7,-0.07,0.98,0.24,36.69
7,-0.16,0.96,0.30,36.69
7,-0.23,1.00,0.19,39.02
7,-0.23,1.00,0.01,35.76
7,-0.17,1.01,0.01,35.61
7,-0.07,1.00,-0.01,37.18
7,-0.07,0.99,0.14,37.60
7,-0.07,0.99,0.14,43.70
7,-0.16,0.96,0.30,43.70
7,-0.16,0.98,0.25,39.29
7,-0.23,0.98,0.25,39.42
7,-0.17,1.00,0.07,39.42
7,-0.06,1.00,-0.04,34.60
7,-0.06,1.00,0.07,39.37
7,-0.06,0.98,0.07,39.37
7,-0.18,0.99,0.27,34.24
7,-0.18,0.98,0.31,38.53
7,-0.22,0.98,0.31,38.36
7,-0.15,0.99,0.14,39.92
7,-0.15,1.00,-0.03,38.54
7,-0.07,1.00,-0.05,38.38
7,-0.07,0.98,0.01,38.38
7,-0.10,0.98,0.21,38.22
7,-0.17,0.98,0.32,38.16
7,-0.23,0.99,0.32,38.16
7,-0.15,0.97,0.21,38.41
7,-0.15,0.94,0.00,40.93
7,-0.06,1.01,0.00,40.73
7,-0.08,0.98,-0.03,37.59
7,-0.08,0.98,0.14,41.39
7,-0.18,0.98,0.14,39.33
7,-0.23,1.00,0.30,39.33
7,-0.20,0.96,0.26,38.89
7,-0.14,0.96,0.25,35.89
7,-0.07,0.99,0.07,35.89
7,-0.09,1.01,-0.03,41.03
7,-0.09,1.01,0.07,35.66
7,-0.17,0.98,0.07,35.52
7,-0.23,1.00,0.24,36.30
7,-0.23,0.97,0.28,34.79
7,-0.15,0.97,0.28,37.17
7,-0.06,0.97,0.13,37.17
7,-0.06,1.00,-0.01,37.32
7,-0.09,1.00,-0.03,39.65
7,-0.18,0.99,0.03,39.65
7,-0.22,0.99,0.19,39.23
7,-0.22,0.99,0.27,36.06
7,-0.14,0.98,0.27,36.06
7,-0.06,0.97,0.20,42.72
7,-0.06,0.99,0.05,38.80
7,-0.09,0.99,0.05,38.54
7,-0.19,1.01,0.02,42.45
7,-0.19,1.00,0.12,41.63
7,-0.22,1.00,0.11,37.31
7,-0.13,0.98,0.23,37.31
7,-0.18,0.97,0.23,36.73
7,-0.06,0.97,0.12,41.85
7,-0.09,0.98,0.12,41.85
7,-0.20,1.01,0.04,40.74
7,-0.20,1.01,0.07,37.75
7,-0.21,1.01,0.07,37.55
7,-0.12,0.98,0.18,39.12
7,-0.12,0.98,0.23,37.81
7,-0.06,0.98,0.23,38.70
7,-0.10,0.97,0.18,38.70
7,-0.07,1.00,0.08,36.52
7,-0.20,1.00,0.10,35.89
7,-0.23,1.02,0.04,35.89
7,-0.11,0.98,0.11,34.74
7,-0.11,0.98,0.22,34.72
7,-0.05,0.98,0.22,34.53
7,-0.12,0.97,0.22,36.09
7,-0.12,0.98,0.14,37.09
7,-0.20,0.98,0.14,40.23
7,-0.22,1.03,0.04,40.23
7,-0.23,0.99,0.06,40.31
7,-0.10,0.99,0.04,37.75
7,-0.04,0.96,0.17,37.75
7,-0.12,0.98,0.24,39.34
7,-0.12,0.98,0.20,37.48
7,-0.21,0.97,0.20,37.48
7,-0.20,1.01,0.07,38.48
7,-0.20,1.01,0.01,45.00
7,-0.11,1.01,0.01,44.63
7,-0.04,0.97,0.11,37.58
7,-0.04,0.97,0.24,37.74
7,-0.12,0.97,0.25,36.06
7,-0.22,0.98,0.25,36.06
7,-0.20,0.99,0.12,37.56
7,-0.20,0.99,0.01,35.99
7,-0.10,1.00,0.01,35.99
7,-0.05,0.99,0.06,40.27
7,-0.05,0.97,0.20,37.54
7,-0.12,0.97,0.20,37.79
7,-0.22,0.98,0.28,35.44
7,-0.22,0.99,0.18,36.03
7,-0.20,0.99,0.18,37.77
7,-0.09,0.99,0.02,37.77
7,-0.11,0.99,0.01,35.34
7,-0.05,0.99,0.03,39.88
7,-0.13,0.98,0.15,39.88
7,-0.22,0.97,0.28,36.75
8,-0.20,0.99,0.26,39.07
8,-0.09,0.99,0.11,41.93
8,-0.09,0.99,0.00,39.37
8,-0.04,0.98,0.00,39.27
8,-0.15,1.00,0.06,39.27
8,-0.15,0.99,0.22,38.96
8,-0.22,0.99,0.22,39.83
8,-0.18,0.98,0.27,39.83
8,-0.18,0.99,0.16,38.26
8,-0.08,0.99,0.15,39.11
8,-0.06,0.98,0.03,39.11
8,-0.02,0.99,0.04,36.41
8,-0.14,0.99,0.17,35.16
8,-0.23,1.00,0.17,35.16
8,-0.18,0.97,0.26,35.39
8,-0.18,0.99,0.19,35.08
8,-0.07,0.99,0.19,34.60
8,-0.06,0.98,0.07,38.51
8,-0.06,0.99,0.04,38.94
8,-0.15,0.99,0.04,41.26
8,-0.23,1.01,0.12,41.26
8,-0.24,0.99,0.22,37.69
8,-0.18,0.99,0.22,34.90
8,-0.07,0.97,0.22,34.90
8,-0.07,0.99,0.12,34.93
8,-0.07,0.99,0.05,41.06
8,-0.16,0.99,0.05,40.74
8,-0.23,1.00,0.08,37.61
8,-0.23,1.01,0.17,41.46
8,-0.18,1.01,0.17,40.14
8,-0.06,0.97,0.21,40.14
8,-0.12,0.97,0.17,42.29
8,-0.06,0.97,0.16,41.63
8,-0.17,1.00,0.10,41.63
8,-0.23,1.00,0.07,41.05
8,-0.23,1.00,0.13,41.63
8,-0.16,0.99,0.13,41.84
8,-0.07,0.98,0.19,37.93
8,-0.07,0.96,0.20,37.81
8,-0.06,0.96,0.20,43.39
8,-0.17,0.98,0.15,43.39
8,-0.17,1.01,0.08,37.12
8,-0.23,1.01,0.08,39.00
8,-0.16,0.99,0.08,39.00
8,-0.05,0.99,0.15,39.66
8,-0.05,0.99,0.21,36.21
8,-0.06,0.97,0.21,36.21
8,-0.17,0.97,0.19,39.24
8,-0.17,0.95,0.11,40.98
8,-0.24,1.02,0.11,41.37
8,-0.16,1.00,0.06,41.37
8,-0.16,0.98,0.10,38.04
8,-0.05,0.98,0.12,36.58
8,-0.08,0.98,0.19,36.58
8,-0.11,0.97,0.22,36.60
8,-0.18,0.97,0.14,37.49
8,-0.24,1.00,0.14,37.49
8,-0.15,1.00,0.05,39.44
8,-0.15,1.05,0.06,39.95
8,-0.05,0.98,0.06,40.24
8,-0.07,0.98,0.16,38.68
8,-0.07,0.97,0.24,39.72
8,-0.19,0.97,0.24,40.06
8,-0.23,1.00,0.20,40.06
8,-0.20,1.00,0.08,36.49
8,-0.14,1.00,0.10,39.06
8,-0.06,0.99,0.03,39.06
8,-0.08,0.98,0.12,38.49
8,-0.08,0.98,0.23,36.44
8,-0.19,0.98,0.23,36.45
8,-0.23,1.00,0.23,38.80
8,-0.23,0.98,0.11,37.97
8,-0.14,0.98,0.11,39.50
8,-0.05,0.99,0.02,39.50
8,-0.02,0.99,0.08,41.93
8,-0.08,0.99,0.09,39.32
8,-0.19,0.97,0.22,39.32
8,-0.23,1.00,0.24,39.52
8,-0.23,1.00,0.15,35.03
8,-0.14,0.98,0.15,35.03
8,-0.05,0.98,0.03,38.51
8,-0.05,0.94,0.05,37.26
8,-0.09,1.00,0.05,36.00
8,-0.19,0.97,0.18,36.00
8,-0.19,0.99,0.25,39.49
8,-0.23,0.99,0.30,38.69
8,-0.13,0.99,0.17,38.69
8,-0.17,0.98,0.06,36.77
8,-0.04,0.98,0.04,40.52
8,-0.09,1.00,0.04,40.52
8,-0.20,0.99,0.14,40.66
8,-0.20,0.99,0.23,37.96
8,-0.22,0.99,0.23,37.67
8,-0.12,0.99,0.20,38.45
8,-0.12,0.98,0.10,39.27
8,-0.05,0.98,0.10,38.71
8,-0.10,0.99,0.04,38.71
8,-0.08,0.99,0.11,41.63
8,-0.21,0.99,0.08,36.66
8,-0.22,1.00,0.20,36.66
8,-0.12,0.98,0.20,34.50
8,-0.12,0.98,0.12,37.71
8,-0.04,0.98,0.12,37.75
8,-0.11,0.99,0.06,36.18
8,-0.11,0.98,0.09,38.61
8,-0.20,0.98,0.09,36.97
8,-0.21,1.01,0.16,36.97
8,-0.23,0.98,0.20,37.20
8,-0.11,0.98,0.22,42.84
8,-0.05,0.97,0.16,42.84
8,-0.12,1.00,0.10,39.36
8,-0.12,1.00,0.09,38.00
8,-0.21,0.98,0.09,38.00
8,-0.22,1.01,0.14,39.57
8,-0.22,1.05,0.17,41.85
8,-0.11,0.99,0.17,42.50
8,-0.04,0.97,0.17,42.50
8,-0.04,0.99,0.13,41.94
8,-0.12,0.99,0.16,39.79
8,-0.22,0.99,0.10,39.79
8,-0.21,1.00,0.11,36.25
8,-0.21,1.00,0.14,37.07
8,-0.09,0.99,0.14,37.07
8,-0.04,0.97,0.17,35.84
8,-0.04,0.99,0.16,38.42
8,-0.12,0.99,0.16,38.93
8,-0.22,0.99,0.13,39.72
8,-0.22,1.01,0.10,36.54
8,-0.21,1.01,0.10,42.22
8,-0.09,0.99,0.10,42.22
8,-0.10,0.97,0.15,36.57
8,-0.03,0.97,0.18,38.31
8,-0.13,0.98,0.18,38.31
8,-0.23,0.98,0.16,44.92
8,-0.23,0.95,0.10,38.11
8,-0.20,1.01,0.10,37.84
8,-0.09,0.99,0.08,40.19
8,-0.09,0.97,0.14,39.41
8,-0.04,0.97,0.14,38.58
8,-0.14,0.99,0.19,38.58
8,-0.17,0.98,0.20,37.02
8,-0.23,0.98,0.25,37.31
8,-0.20,1.00,0.12,37.31
8,-0.09,1.00,0.06,36.72
8,-0.09,1.00,0.10,38.70
8,-0.04,0.97,0.10,38.61
8,-0.14,0.98,0.19,37.82
8,-0.14,0.99,0.22,41.09
8,-0.23,0.99,0.22,41.49
8,-0.20,1.00,0.14,41.49
8,-0.20,0.99,0.06,41.70
8,-0.07,0.99,0.07,38.74
8,-0.05,0.98,0.07,38.74
8,-0.03,0.98,0.17,42.52
8,-0.15,0.98,0.23,37.86
8,-0.23,0.98,0.23,37.86
8,-0.19,1.00,0.17,37.50
8,-0.19,0.99,0.07,41.44
8,-0.07,0.99,0.07,41.36
8,-0.05,0.98,0.05,36.66
8,-0.05,0.99,0.15,34.82
8,-0.15,0.99,0.15,39.34
8,-0.23,0.98,0.23,39.34
8,-0.19,0.99,0.19,40.34
8,-0.19,0.99,0.10,37.42
8,-0.06,0.99,0.10,37.42
8,-0.05,0.98,0.05,39.19
8,-0.05,0.99,0.12,37.45
8,-0.17,0.99,0.12,37.32
8,-0.23,0.99,0.21,38.11
8,-0.23,0.98,0.21,38.08
8,-0.17,0.98,0.21,41.88
8,-0.07,0.99,0.11,41.88
8,-0.11,0.99,0.05,43.30
8,-0.05,0.99,0.04,40.48
8,-0.16,0.99,0.10,40.48
8,-0.24,1.00,0.19,41.16
8,-0.24,1.00,0.21,41.13
8,-0.17,0.99,0.21,41.25
8,-0.05,0.98,0.14,38.90
8,-0.05,0.98,0.07,37.27
8,-0.06,0.98,0.07,38.38
8,-0.17,0.99,0.10,38.38
8,-0.17,0.99,0.16,37.04
8,-0.23,0.99,0.13,39.26
8,-0.16,0.99,0.19,39.26
8,-0.06,0.98,0.15,37.44
8,-0.06,0.98,0.10,41.05
8,-0.07,0.98,0.10,41.05
8,-0.17,1.00,0.10,34.99
8,-0.17,1.00,0.14,40.41
8,-0.24,1.00,0.14,40.56
8,-0.16,0.99,0.18,38.21
8,-0.16,0.98,0.16,37.12
8,-0.05,0.98,0.19,38.38
8,-0.06,0.97,0.12,38.38
8,-0.12,0.98,0.11,40.89
8,-0.19,0.98,0.12,36.44
8,-0.24,1.01,0.12,36.44
8,-0.14,0.99,0.15,37.16
8,-0.14,0.98,0.15,38.83
8,-0.05,0.98,0.15,38.83
8,-0.08,0.98,0.14,37.26
8,-0.08,0.97,0.14,35.82
8,-0.18,0.97,0.14,44.01
8,-0.24,1.01,0.12,44.01
8,-0.21,1.00,0.12,40.95
8,-0.15,1.00,0.08,36.67
8,-0.04,0.97,0.14,36.67
8,-0.08,0.98,0.16,41.03
8,-0.08,0.99,0.16,38.12
8,-0.19,0.99,0.16,38.30
8,-0.23,1.00,0.13,37.51
8,-0.23,1.00,0.10,37.96
8,-0.14,1.00,0.10,35.75
8,-0.04,0.98,0.11,35.75
8,-0.02,0.98,0.16,40.31
8,-0.09,0.98,0.18,36.65
8,-0.19,0.98,0.18,36.65
8,-0.23,1.01,0.15,38.93
8,-0.23,1.01,0.10,36.80
8,-0.13,0.99,0.10,37.47
8,-0.04,0.98,0.09,38.25
8,-0.04,0.99,0.15,38.61
8,-0.10,0.99,0.15,42.63
8,-0.20,0.96,0.20,42.63
8,-0.20,1.00,0.16,39.90
8,-0.23,1.00,0.15,38.62
8,-0.13,1.00,0.09,38.62
8,-0.16,0.98,0.07,37.68
8,-0.03,0.98,0.13,41.70
8,-0.10,0.99,0.13,41.70
9,-0.21,0.98,0.20,38.18
9,-0.22,1.00,0.20,38.18
9,-0.12,0.99,0.12,41.01
9,-0.12,0.98,0.06,38.56
9,-0.03,0.98,0.06,38.52
9,-0.11,0.99,0.09,36.17
9,-0.11,0.97,0.18,38.75
9,-0.21,0.97,0.18,39.66
9,-0.22,1.00,0.21,39.66
9,-0.24,0.99,0.14,37.41
9,-0.11,0.99,0.14,38.26
9,-0.04,0.98,0.08,38.26
9,-0.11,1.00,0.09,38.08
9,-0.11,0.98,0.17,38.09
9,-0.21,0.98,0.17,38.30
9,-0.21,0.99,0.21,39.08
9,-0.21,0.99,0.15,38.69
9,-0.11,0.99,0.15,38.11
9,-0.03,0.97,0.09,38.11
9,-0.05,0.99,0.08,38.70
9,-0.12,0.99,0.09,39.22
9,-0.22,0.99,0.15,39.22
9,-0.21,0.99,0.20,37.07
9,-0.21,0.99,0.16,36.95
9,-0.10,0.98,0.16,36.88
9,-0.04,0.97,0.10,36.88
9,-0.04,1.00,0.09,37.99
9,-0.13,1.00,0.09,39.73
9,-0.22,0.98,0.14,39.73
9,-0.22,1.00,0.17,41.03
9,-0.21,1.00,0.15,36.70
9,-0.09,0.99,0.15,36.70
9,-0.04,0.97,0.12,35.99
9,-0.04,0.97,0.11,40.54
9,-0.13,1.00,0.11,40.54
9,-0.23,0.99,0.13,42.35
9,-0.23,1.00,0.17,41.30
9,-0.20,1.00,0.17,40.91
9,-0.09,1.00,0.16,35.42
9,-0.09,0.97,0.14,37.58
9,-0.04,0.97,0.13,38.59
9,-0.14,0.99,0.13,38.59
9,-0.16,0.99,0.14,39.10
9,-0.23,0.99,0.14,35.27
9,-0.19,1.00,0.14,35.27
9,-0.08,0.99,0.14,35.77
9,-0.08,0.97,0.13,36.86
9,-0.03,0.97,0.13,36.80
9,-0.14,0.99,0.14,39.93
9,-0.14,0.99,0.14,39.67
9,-0.23,0.99,0.14,35.40
9,-0.20,1.00,0.13,35.40
9,-0.20,0.99,0.12,40.13
9,-0.07,0.99,0.07,35.85
9,-0.04,0.96,0.14,35.85
9,-0.15,0.99,0.16,37.18
9,-0.15,0.99,0.16,39.87
9,-0.23,1.00,0.16,39.32
9,-0.19,0.99,0.13,39.32
9,-0.19,0.99,0.10,37.06
9,-0.08,0.99,0.10,38.45
9,-0.04,0.97,0.13,38.45
9,-0.03,0.99,0.17,40.18
9,-0.16,0.99,0.17,39.19
9,-0.24,0.99,0.17,39.19
9,-0.18,1.00,0.13,37.67
9,-0.18,1.00,0.09,38.80
9,-0.06,0.99,0.09,38.79
9,-0.05,0.98,0.11,41.92
9,-0.05,0.99,0.17,38.52
9,-0.17,0.99,0.17,41.14
9,-0.23,0.98,0.19,41.14
9,-0.23,1.00,0.14,38.70
9,-0.18,1.00,0.14,41.01
9,-0.06,0.99,0.08,41.01
9,-0.10,0.97,0.10,37.32
9,-0.04,0.97,0.17,36.47
9,-0.17,0.99,0.17,36.47
9,-0.24,0.99,0.20,42.76
9,-0.24,0.99,0.15,40.88
9,-0.17,0.99,0.15,40.72
9,-0.06,1.00,0.08,37.59
9,-0.06,0.98,0.09,41.98
9,-0.06,0.98,0.09,39.58
9,-0.18,0.98,0.16,39.58
9,-0.17,0.99,0.20,40.58
9,-0.23,0.99,0.16,39.66
9,-0.17,0.99,0.16,39.66
9,-0.05,0.98,0.09,38.37
9,-0.05,0.98,0.07,37.57
9,-0.05,0.98,0.07,37.81
9,-0.18,0.99,0.15,38.59
9,-0.18,0.99,0.20,37.96
9,-0.24,0.99,0.20,36.41
9,-0.16,1.00,0.18,36.41
9,-0.18,0.99,0.10,36.88
9,-0.05,0.99,0.08,37.08
9,-0.07,0.97,0.08,37.08
9,-0.18,0.99,0.14,36.11
9,-0.18,0.99,0.20,40.61
9,-0.23,1.00,0.20,40.18
9,-0.15,0.99,0.18,37.05
9,-0.15,0.98,0.10,37.89
9,-0.05,0.98,0.10,37.70
9,-0.07,0.99,0.08,37.70
9,-0.07,0.99,0.13,37.41
9,-0.19,0.99,0.18,38.50
9,-0.25,1.00,0.18,38.50
9,-0.14,1.00,0.17,38.53
9,-0.14,1.00,0.12,37.35
9,-0.04,0.98,0.12,37.35
9,-0.08,0.99,0.09,38.61
9,-0.08,0.99,0.12,42.97
9,-0.20,0.99,0.12,42.28
9,-0.23,0.99,0.16,39.14
9,-0.23,1.00,0.16,35.90
9,-0.15,1.00,0.19,42.73
9,-0.04,0.98,0.12,42.73
9,-0.01,0.98,0.11,39.35
9,-0.08,0.98,0.13,38.55
9,-0.21,0.99,0.13,38.55
9,-0.24,1.00,0.15,41.54
9,-0.24,1.05,0.16,40.99
9,-0.13,0.99,0.16,41.22
9,-0.04,0.97,0.13,38.09
9,-0.04,0.99,0.12,41.00
9,-0.10,0.99,0.12,36.83
9,-0.20,0.98,0.14,36.83
9,-0.22,1.00,0.14,41.83
9,-0.22,1.00,0.13,35.38
9,-0.13,0.99,0.13,35.38
9,-0.04,0.97,0.13,37.76
9,-0.04,0.98,0.14,40.03
9,-0.09,0.98,0.14,40.33
9,-0.21,0.99,0.15,37.20
9,-0.21,1.00,0.15,43.32
9,-0.23,1.00,0.15,37.94
9,-0.12,0.99,0.12,37.94
9,-0.09,0.98,0.12,41.77
9,-0.03,0.98,0.08,39.75
9,-0.11,0.98,0.14,39.75
9,-0.21,0.99,0.17,39.35
9,-0.21,0.99,0.14,34.99
9,-0.22,1.00,0.14,34.69
9,-0.11,1.00,0.10,37.82
9,-0.11,0.97,0.11,40.17
9,-0.03,0.97,0.11,37.44
9,-0.10,1.00,0.14,37.44
9,-0.10,0.98,0.18,36.62
9,-0.21,0.98,0.15,39.58
9,-0.22,1.00,0.15,39.58
9,-0.23,1.00,0.11,39.57
9,-0.10,1.00,0.10,39.18
9,-0.03,0.97,0.10,39.18
9,-0.12,0.98,0.14,42.52
9,-0.12,0.99,0.19,38.27
9,-0.21,0.99,0.19,37.93
9,-0.21,0.99,0.17,40.28
9,-0.21,1.00,0.10,38.58
9,-0.11,1.00,0.10,40.15
9,-0.03,0.98,0.08,40.15
9,-0.06,0.99,0.13,35.95
9,-0.12,0.99,0.19,39.78
9,-0.23,0.99,0.19,39.78
9,-0.22,1.00,0.18,37.22
9,-0.22,1.00,0.11,38.51
9,-0.09,1.00,0.11,38.69
9,-0.03,0.97,0.08,37.13
9,-0.03,0.98,0.12,38.44
9,-0.12,0.98,0.12,39.82
9,-0.22,0.99,0.18,39.82
9,-0.20,0.98,0.19,42.34
9,-0.20,0.98,0.24,39.16
9,-0.10,1.00,0.11,39.16
9,-0.03,0.98,0.07,36.32
9,-0.03,0.98,0.11,37.00
9,-0.12,0.99,0.11,36.85
9,-0.23,0.99,0.18,38.41
9,-0.23,0.99,0.19,41.71
9,-0.20,0.99,0.19,43.81
9,-0.08,0.99,0.12,43.81
9,-0.10,0.97,0.08,40.47
9,-0.03,0.97,0.11,37.78
9,-0.14,0.99,0.11,37.78
9,-0.22,0.98,0.18,39.50
9,-0.22,0.98,0.19,36.96
9,-0.19,0.99,0.19,36.96
9,-0.09,1.00,0.13,42.89
9,-0.09,1.03,0.09,41.96
9,-0.03,0.97,0.09,43.02
9,-0.14,0.99,0.11,43.02
9,-0.14,1.00,0.16,40.51
9,-0.24,1.00,0.13,37.00
9,-0.19,0.99,0.19,37.00
9,-0.13,1.00,0.14,39.89
9,-0.07,1.00,0.11,42.37
9,-0.05,0.97,0.11,42.37
9,-0.16,0.99,0.11,40.85
9,-0.16,0.99,0.15,40.20
9,-0.23,0.99,0.15,40.02
9,-0.19,0.99,0.16,40.02
9,-0.19,0.99,0.13,36.93
9,-0.08,0.99,0.13,38.68
9,-0.03,0.96,0.11,38.68
9,-0.03,1.00,0.13,39.99
9,-0.15,1.00,0.15,38.22
9,-0.24,0.99,0.15,38.22
9,-0.18,0.99,0.16,37.74
9,-0.18,1.00,0.13,40.39
9,-0.07,1.00,0.13,40.24
9,-0.06,0.97,0.13,41.81
9,-0.06,0.99,0.14,35.47
9,-0.17,0.99,0.14,40.22
9,-0.22,1.00,0.15,40.22
9,-0.24,0.99,0.14,42.40
9,-0.18,0.99,0.18,40.28
9,-0.07,0.99,0.12,40.28
9,-0.04,0.97,0.13,38.47
9,-0.04,0.97,0.15,37.41
9,-0.17,0.99,0.15,36.86
9,-0.25,0.99,0.16,39.21
9,-0.25,0.99,0.14,37.74
9,-0.16,0.99,0.14,43.44
9,-0.05,0.99,0.11,43.44
9,-0.00,0.97,0.13,37.61
9,-0.06,0.97,0.16,35.98
9,-0.17,0.99,0.16,35.98
9,-0.23,1.00,0.17,38.87
9,-0.23,1.00,0.13,41.73
9,-0.16,0.99,0.13,41.73
9,-0.06,0.99,0.09,39.46
9,-0.06,0.98,0.11,39.59
10,-0.19,0.99,0.17,38.14
