seconds, accX, accY, accZ, temp
1,-0.04,0.78,-0.22,44.72
1,-0.06,1.47,-0.22,46.33
1,-0.10,0.28,5.65,46.33
1,-0.08,0.55,3.41,42.09
1,-0.21,0.55,3.41,36.84
1,0.21,2.14,-3.15,36.84
1,-0.07,0.92,-4.03,38.36
1,-0.07,0.92,-2.67,38.11
1,-0.09,1.80,-2.67,38.01
1,0.18,0.18,4.98,40.36
1,0.18,0.13,4.39,39.63
1,-0.19,0.69,4.39,43.82
1,-0.39,0.91,0.48,43.82
1,-0.39,1.02,-3.83,43.28
1,-0.16,1.02,-3.84,41.39
1,-0.12,1.95,-4.59,41.39
1,0.01,0.34,2.96,38.69
1,0.01,0.34,3.61,38.19
1,-0.24,1.01,3.61,38.19
1,-0.29,0.71,2.31,36.97
1,-0.29,0.70,-2.87,40.32
1,-0.18,1.01,-2.87,40.36
1,-0.15,1.98,-5.50,43.49
1,-0.15,0.44,0.60,41.03
1,-0.02,0.44,0.62,40.46
1,0.06,1.15,3.93,40.46
1,0.07,0.31,4.65,44.98
1,-0.18,0.31,-0.77,38.74
1,-0.33,1.13,-0.77,38.74
1,-0.15,1.79,-5.29,44.59
1,-0.15,1.75,-1.71,40.02
1,-0.00,0.75,-1.71,40.02
1,-0.05,1.37,1.85,41.59
1,-0.05,0.07,5.86,39.88
1,-0.13,0.07,5.86,43.33
1,-0.27,1.11,0.47,43.33
1,-0.26,1.48,-3.93,45.86
1,-0.20,1.48,-3.92,39.97
1,-0.06,1.04,-3.48,39.97
1,-0.07,1.44,-0.23,43.64
1,-0.07,1.44,6.20,41.60
1,-0.08,0.03,6.20,41.68
1,-0.24,1.00,2.61,42.46
1,-0.24,1.53,-1.75,43.20
1,0.21,1.53,-1.75,41.45
1,-0.10,1.25,-4.35,41.45
1,-0.10,1.59,-2.27,42.01
1,-0.10,1.59,-2.27,41.39
1,0.05,0.13,4.42,41.39
1,-0.21,0.99,3.77,42.21
1,-0.21,0.99,1.42,40.33
1,-0.23,0.60,1.42,40.18
1,-0.18,1.35,-4.16,40.97
1,-0.18,1.36,-3.78,41.26
1,-0.11,1.61,-3.78,37.72
1,-0.01,0.42,2.35,37.72
1,-0.01,1.01,3.36,37.35
1,-0.34,1.01,3.34,39.75
1,-0.24,0.42,2.84,39.75
1,-0.20,1.42,-3.08,46.00
1,-0.20,1.42,-4.43,46.77
1,-0.11,1.53,-4.43,46.77
1,-0.04,0.70,-0.09,40.73
1,-0.04,0.73,3.90,36.03
1,-0.29,0.92,3.90,36.01
1,-0.15,0.16,4.76,43.84
1,-0.15,1.35,-1.21,36.54
1,-0.48,1.35,-1.21,38.81
1,-0.13,1.33,-4.15,38.81
1,-0.17,1.08,-2.28,44.31
1,-0.04,1.08,1.87,39.90
1,-0.10,1.20,1.87,39.90
1,-0.16,0.12,5.21,43.05
1,-0.16,0.09,0.22,47.00
1,-0.30,1.28,0.22,47.03
1,-0.17,1.05,-2.95,44.68
1,-0.17,1.39,-3.93,41.62
1,-0.11,1.39,-3.93,38.97
1,-0.07,1.20,0.10,38.97
1,-0.07,0.19,5.68,42.56
1,0.05,0.19,5.66,38.41
1,-0.24,1.08,2.47,38.41
1,-0.06,0.94,-1.29,43.60
1,-0.06,0.94,-4.67,40.65
1,-0.12,1.57,-4.67,40.50
1,-0.10,1.28,-1.70,37.36
1,-0.10,0.36,3.65,38.38
1,0.01,0.36,3.65,43.45
1,-0.22,1.00,3.48,43.45
1,-0.23,0.49,1.36,41.40
1,-0.17,0.49,1.33,41.28
1,-0.19,1.67,-4.29,41.28
1,-0.09,1.27,-3.05,42.54
1,-0.09,1.27,1.45,38.61
1,-0.07,0.76,1.45,38.61
1,-0.26,0.94,3.48,42.37
1,-0.26,0.90,2.94,41.00
1,-0.19,0.34,2.94,35.50
1,-0.22,1.62,-3.31,35.50
1,-0.22,1.21,-3.69,44.32
1,-0.09,1.21,-3.70,36.60
1,-0.06,1.12,-0.76,36.60
1,-0.04,0.65,3.47,38.89
1,-0.04,0.65,4.23,44.38
1,-0.15,0.28,4.23,44.38
1,-0.87,0.74,-0.96,46.55
1,-0.87,0.75,-3.45,44.95
1,-0.14,1.19,-3.45,44.58
1,-0.09,1.36,-2.74,38.32
1,-0.09,0.89,2.19,43.89
1,-0.12,0.89,2.19,39.73
1,-0.25,0.31,4.13,39.73
1,-0.24,1.23,0.44,40.86
1,-0.30,1.23,-2.44,39.12
1,-0.17,0.96,-2.44,39.12
1,-0.13,1.62,-4.14,39.68
1,-0.13,1.59,0.53,41.41
1,-0.06,0.91,0.53,40.97
1,0.04,0.52,4.49,40.97
1,0.04,0.97,2.51,39.08
1,-0.23,0.97,2.51,39.69
1,-0.33,0.68,-0.87,39.69
1,-0.32,1.79,-4.55,40.39
1,-0.13,1.79,-4.51,39.98
1,-0.07,0.94,-1.20,39.98
1,0.13,0.90,2.80,41.98
1,0.13,0.90,3.95,37.30
1,-0.17,0.73,3.95,36.76
1,-0.16,0.72,0.78,38.33
1,-0.16,0.69,-3.99,41.62
1,-0.18,1.69,-3.99,44.43
1,-0.07,1.03,-2.55,44.43
1,-0.06,0.98,0.90,38.74
1,-0.06,0.98,0.90,41.40
1,-0.22,0.61,4.27,41.40
1,-0.20,0.58,2.52,47.95
1,-0.20,0.58,-2.76,46.64
1,-0.16,1.40,-2.76,46.64
1,-0.09,1.10,-3.22,46.21
1,-0.09,1.09,-1.16,47.65
1,-0.09,1.28,-1.16,44.83
1,0.04,0.54,3.72,44.83
1,0.04,0.57,3.66,43.87
1,-0.21,0.57,3.68,48.20
1,-1.17,0.31,-0.14,48.20
1,-1.18,1.05,-3.14,43.70
1,-0.11,1.05,-2.80,43.64
1,-0.10,1.52,-2.80,43.64
1,-0.07,0.66,2.14,41.10
1,-0.07,0.63,3.56,44.66
1,-0.27,0.63,3.56,45.06
1,-0.27,1.03,0.95,41.14
1,-0.27,1.00,-2.26,42.58
1,-0.16,1.00,-2.26,41.31
1,-0.13,1.64,-3.85,41.31
1,-0.11,0.70,0.64,40.56
1,-0.05,0.70,0.68,40.25
1,-0.01,0.73,3.87,40.25
1,-0.19,0.76,2.89,41.89
1,-0.19,0.76,-0.99,44.64
1,-0.27,0.82,-0.99,44.89
1,-0.12,1.62,-4.04,37.84
1,-0.12,0.85,-1.08,41.66
1,-0.06,0.85,-1.08,38.89
1,-0.05,1.11,2.19,38.89
1,-0.01,0.55,3.54,42.74
1,-0.33,0.55,3.55,39.99
1,-0.20,0.92,0.43,39.99
1,-0.16,1.47,-3.34,36.86
1,-0.16,1.47,-2.44,41.47
1,-0.08,1.01,-2.44,41.46
1,-0.10,1.15,0.47,43.02
1,-0.10,0.43,4.67,37.38
1,-0.07,0.43,4.67,49.42
1,-0.19,0.82,2.08,49.42
1,-0.23,1.14,-2.10,43.01
1,-0.11,1.14,-2.08,41.45
1,-0.11,1.14,-3.14,41.45
1,-0.10,1.33,-1.22,43.66
1,-0.10,1.33,3.50,44.60
1,0.00,0.50,3.50,45.07
1,-0.14,0.76,3.36,38.81
1,-0.14,0.80,0.06,38.19
1,-0.79,0.30,0.06,40.13
1,-0.13,1.23,-3.12,40.13
1,-0.13,1.44,-2.62,42.12
1,-0.10,1.44,-2.62,45.89
1,-0.08,0.61,2.07,45.89
1,-0.11,0.82,3.60,44.34
1,-0.17,0.82,1.33,39.76
1,-0.24,0.77,1.33,39.76
1,-0.17,1.17,-2.38,35.19
1,-0.17,1.13,-3.45,45.58
1,-0.13,1.51,-3.45,45.41
1,-0.05,0.77,0.45,43.06
1,-0.05,0.81,2.96,44.18
1,-0.11,0.81,2.96,42.36
1,-0.16,0.55,3.12,42.36
1,-0.15,1.15,-1.42,44.08
1,-0.27,1.15,-3.48,44.03
1,-0.14,1.49,-3.48,44.03
1,-0.08,0.95,-1.23,41.48
1,-0.08,0.94,1.94,37.77
1,-0.10,1.01,1.94,38.04
1,-0.26,0.50,3.38,43.52
1,-0.26,1.14,0.46,43.71
1,-0.17,1.14,0.46,41.43
1,-0.15,1.30,-2.77,41.43
1,-0.16,1.14,-2.53,46.64
1,-0.10,1.14,-2.51,41.28
1,-0.11,1.10,0.55,41.28
1,-0.06,0.41,4.39,39.92
1,-0.06,0.41,1.67,43.40
1,-0.21,1.02,1.67,43.64
1,-0.13,1.03,-1.70,45.99
1,-0.13,1.05,-3.17,38.46
1,-0.11,1.30,-3.17,42.64
1,-0.10,1.19,-0.98,42.64
1,-0.12,0.48,3.13,41.27
1,-0.06,0.48,3.18,46.93
1,-0.26,0.93,2.36,46.93
1,-0.99,0.06,0.46,40.39
1,-0.99,0.06,-3.10,40.82
1,-0.15,1.33,-3.10,40.82
2,-0.11,1.28,-2.89,41.71
2,-0.08,0.88,0.11,41.71
2,-0.08,0.76,2.79,40.15
2,-0.08,0.76,2.83,42.97
2,-0.18,0.58,2.83,42.85
2,-0.29,1.13,-1.34,44.42
2,-0.29,1.19,-2.95,38.90
2,-0.11,1.19,-2.95,38.48
2,-0.11,1.13,-1.45,38.48
2,-0.08,0.94,1.66,37.16
2,-0.14,0.94,1.64,41.67
2,-0.20,0.50,3.45,41.67
2,-0.29,1.12,-0.02,40.88
2,-0.29,1.12,-2.26,39.05
2,-0.14,1.12,-2.26,39.05
2,-0.11,1.29,-2.65,40.81
2,-0.11,1.30,0.65,39.06
2,-0.10,0.99,0.65,41.18
2,-0.04,0.57,3.54,41.18
2,-0.04,0.98,1.69,38.68
2,-0.20,0.98,1.70,37.97
2,0.46,1.69,-1.05,37.97
2,0.44,1.37,-3.19,46.34
2,-0.12,1.37,-0.77,44.01
2,-0.10,1.08,-0.77,44.01
2,0.00,0.88,2.59,48.30
2,0.00,0.90,2.48,39.88
2,-0.27,0.84,2.48,39.58
2,-0.26,0.60,0.83,38.80
2,-0.26,1.43,-3.00,39.01
2,-0.15,1.43,-3.00,38.11
2,-0.10,1.11,-1.87,38.11
2,-0.09,0.86,1.30,39.76
2,-0.09,0.86,3.44,44.91
2,-0.16,0.72,3.44,44.91
2,-0.19,0.73,1.50,45.05
2,-0.19,0.71,-2.18,42.03
2,-0.17,1.33,-2.18,41.74
2,-0.11,1.14,-2.55,42.52
2,-0.11,1.05,-0.18,40.98
2,-0.10,1.05,-0.18,44.01
2,-0.00,0.75,3.04,44.01
2,-0.01,0.65,2.50,38.15
2,-0.20,0.65,2.56,41.14
2,-0.33,1.13,-1.13,41.14
2,-0.10,1.15,-2.61,44.42
2,-0.10,1.15,-1.59,38.29
2,-0.12,1.24,-1.59,37.67
2,-0.11,0.81,1.85,43.16
2,-0.11,0.81,3.39,42.60
2,-0.14,0.62,3.39,34.60
2,-0.25,1.07,0.18,34.60
2,-0.26,1.08,-2.02,41.92
2,-0.13,1.08,-2.04,40.58
2,-0.12,1.37,-2.60,40.58
2,-0.08,0.87,0.69,40.92
2,-0.08,0.87,2.96,40.95
2,-0.05,0.77,2.96,40.95
2,-0.21,0.91,1.67,40.67
2,-0.21,0.91,-1.16,39.63
2,-0.17,0.91,-1.16,39.33
2,-0.13,1.44,-3.00,43.24
2,-0.13,0.96,-0.60,42.67
2,-0.09,0.96,-0.56,45.20
2,-0.10,0.89,2.19,45.20
2,-0.08,0.80,2.44,41.53
2,-0.21,0.80,0.44,45.38
2,-0.81,0.20,0.44,45.38
2,-0.14,1.39,-2.73,36.66
2,-0.14,1.44,-1.69,40.53
2,-0.10,1.06,-1.69,40.07
2,-0.10,0.97,1.03,47.12
2,-0.10,0.71,3.05,46.74
2,-0.10,0.71,3.05,42.71
2,-0.20,0.82,1.29,42.71
2,-0.23,1.28,-1.89,47.07
2,-0.17,1.28,-1.93,41.56
2,-0.10,1.12,-2.37,41.56
2,-0.11,1.14,-0.36,37.69
2,-0.11,1.15,2.72,40.57
2,-0.11,0.65,2.72,40.14
2,-0.19,0.79,2.16,42.49
2,-0.19,1.11,-0.75,40.34
2,-0.18,1.11,-0.75,40.48
2,-0.11,1.17,-2.44,40.48
2,-0.11,1.25,-1.60,45.24
2,-0.11,1.25,-1.57,40.47
2,-0.10,0.74,1.87,40.47
2,-0.16,0.73,3.06,42.18
2,-0.16,0.73,0.88,40.45
2,-0.15,0.98,0.88,40.42
2,-0.13,1.16,-1.96,43.55
2,-0.13,1.14,-2.44,41.19
2,-0.11,1.33,-2.44,43.28
2,-0.10,0.85,0.67,43.28
2,-0.10,0.75,2.64,38.44
2,-0.07,0.75,2.67,46.42
2,-0.17,0.82,1.80,46.42
2,-0.18,1.08,-1.07,42.15
2,-0.18,1.08,-2.73,37.93
2,-0.12,1.35,-2.73,37.93
2,-0.11,0.97,-0.61,46.26
2,-0.11,0.95,1.93,42.39
2,-0.12,0.89,1.93,42.60
2,-0.18,0.67,2.84,38.68
2,-0.18,0.83,0.10,46.74
2,-0.30,0.83,0.07,40.94
2,-0.15,1.31,-2.43,40.94
2,-0.17,1.08,-1.66,39.75
2,-0.10,1.08,0.86,40.22
2,-0.11,1.01,0.86,40.22
2,-0.12,0.59,2.96,41.04
2,-0.12,0.59,1.35,42.91
2,-0.15,0.91,1.35,42.38
2,-0.16,1.20,-1.59,40.03
2,-0.16,1.18,-2.31,39.78
2,-0.12,1.18,-2.31,39.41
2,-0.11,1.12,-0.35,39.41
2,-0.07,0.76,2.57,42.06
2,-0.07,0.76,2.58,39.64
2,-0.18,0.83,2.15,39.64
2,-0.18,0.99,-0.49,43.81
2,-0.18,0.99,-2.39,43.91
2,-0.11,1.21,-2.39,44.35
2,-0.12,1.23,-1.46,44.35
2,-0.12,0.74,1.71,40.50
2,-0.09,0.74,1.71,39.04
2,-0.12,0.83,2.55,39.04
2,-0.11,0.89,0.91,37.08
2,-0.18,0.89,0.89,41.52
2,-0.15,1.19,-1.92,41.52
2,-0.11,1.28,-2.19,40.33
2,-0.11,1.28,0.54,42.39
2,-0.11,0.87,0.54,42.55
2,-0.12,0.82,2.43,37.85
2,-0.12,0.81,1.94,47.36
2,-0.16,0.75,1.94,35.21
2,-0.18,1.13,-1.06,35.21
2,-0.18,1.26,-2.42,40.19
2,-0.13,1.26,-2.38,39.54
2,-0.09,1.02,-0.69,39.54
2,-0.12,0.92,1.80,43.06
2,-0.12,0.92,2.65,37.60
2,-0.15,0.66,2.65,37.60
2,-0.18,1.00,0.01,44.31
2,-0.18,1.03,-2.10,40.97
2,-0.14,1.22,-2.10,40.71
2,-0.12,1.13,-1.68,44.63
2,-0.12,0.98,0.82,40.06
2,-0.10,0.98,0.84,40.89
2,-0.09,0.64,2.77,40.89
2,-0.11,0.95,1.19,39.79
2,-0.17,0.95,-1.31,39.79
2,-0.15,1.09,-1.31,39.79
2,-0.12,1.23,-2.26,45.73
2,-0.12,1.24,-0.28,41.01
2,-0.10,1.05,-0.28,40.84
2,-0.12,0.75,2.35,43.19
2,-0.12,0.88,2.01,42.24
2,-0.17,0.88,2.01,39.35
2,-0.17,0.95,-0.24,39.35
2,-0.13,1.26,-2.33,43.22
2,-0.13,1.26,-2.34,43.46
2,-0.11,1.15,-1.28,43.46
2,-0.10,0.81,1.50,47.57
2,-0.10,0.81,2.42,44.21
2,-0.15,0.85,2.42,44.45
2,-0.17,0.82,0.88,41.32
2,-0.17,1.23,-1.86,38.93
2,-0.14,1.23,-1.86,46.12
2,-0.12,1.19,-1.95,46.12
2,-0.10,0.95,0.37,46.11
2,-0.10,0.95,0.37,41.22
2,-0.12,0.84,2.31,41.22
2,-0.15,0.76,1.87,39.65
2,-0.15,0.76,-0.99,45.97
2,-0.16,1.15,-0.99,45.97
2,-0.12,1.19,-2.17,40.04
2,-0.12,1.21,-0.79,38.84
2,-0.11,1.08,-0.79,42.18
2,-0.11,0.87,1.74,42.18
2,-0.11,0.70,2.47,45.53
2,-0.14,0.70,2.44,48.56
2,-0.12,1.10,0.06,48.56
2,-0.07,1.14,-1.88,41.32
2,-0.13,1.14,-1.71,43.02
2,-0.11,1.20,-1.71,43.02
2,-0.10,0.93,0.85,37.13
2,-0.10,0.88,2.54,40.79
2,-0.12,0.70,2.54,41.31
2,-0.21,0.88,1.17,42.87
2,-0.21,1.05,-1.16,43.80
2,-0.15,1.05,-1.16,38.17
2,-0.13,1.28,-2.22,38.17
2,-0.11,1.01,-0.19,41.89
2,-0.11,1.01,2.12,46.66
2,-0.11,0.79,2.12,46.66
2,-0.14,0.86,1.96,37.04
2,-0.14,0.83,-0.18,37.74
2,-0.16,0.95,-0.18,37.54
2,-0.14,1.27,-2.23,39.89
2,-0.14,1.09,-1.14,43.66
2,-0.11,1.09,-1.14,42.42
2,-0.11,0.88,1.29,42.42
2,-0.09,0.78,2.37,38.30
2,-0.15,0.78,2.33,45.99
2,-0.14,0.89,0.83,45.99
2,-0.15,1.23,-1.75,42.99
2,-0.15,1.23,-1.79,44.12
2,-0.12,1.14,-1.79,44.03
2,-0.11,1.00,0.24,44.82
2,-0.11,1.05,2.27,49.39
2,-0.12,0.80,2.27,39.21
2,-0.17,0.78,1.74,39.21
2,-0.16,1.13,-0.88,44.84
2,-0.16,1.13,-0.88,41.74
2,-0.13,1.16,-2.01,41.74
2,-0.11,1.12,-0.83,40.82
2,-0.11,1.12,1.71,40.16
2,-0.11,0.82,1.71,40.16
2,-0.15,0.76,2.26,44.94
2,-0.15,0.78,0.17,42.44
2,-0.17,1.03,0.17,39.57
2,-0.13,1.13,-1.76,39.57
2,-0.13,1.22,-1.67,44.63
2,-0.12,1.22,-1.64,41.51
2,-0.11,0.90,0.86,41.51
2,-0.07,0.80,2.31,42.63
2,-0.14,0.80,1.19,40.73
2,-0.16,0.90,1.19,40.73
2,-0.15,1.06,-1.11,41.23
2,-0.15,1.01,-2.10,43.15
3,-0.11,1.06,-1.06,40.77
3,-0.11,1.06,1.14,38.80
3,-0.11,0.93,1.14,38.80
3,-0.14,0.76,2.32,37.73
3,-0.14,0.79,0.77,42.01
3,-0.14,0.91,0.77,43.97
3,-0.14,1.20,-1.59,43.97
3,-0.14,1.14,-1.70,42.69
3,-0.12,1.14,-1.71,38.83
3,-0.10,1.03,0.16,38.83
3,-0.12,0.76,2.21,43.33
3,-0.12,0.76,1.58,41.14
3,-0.16,0.84,1.58,41.14
3,-0.16,1.09,-0.73,47.53
3,-0.16,1.10,-1.92,38.78
3,-0.13,1.16,-1.92,38.79
3,-0.11,1.13,-0.81,39.57
3,-0.11,0.81,1.66,43.84
3,-0.12,0.81,1.66,37.94
3,-0.15,0.82,2.07,37.94
3,-0.15,0.97,0.27,46.83
3,-0.15,0.97,0.30,44.84
3,-0.14,1.15,-1.70,44.84
3,-0.13,1.19,-1.56,41.66
3,-0.13,1.19,0.81,38.74
3,-0.10,0.88,0.81,39.07
3,-0.13,0.83,2.14,42.20
3,-0.13,0.87,1.22,46.07
3,-0.15,0.87,1.22,43.34
3,-0.14,1.10,-1.08,43.34
3,-0.13,1.23,-1.94,41.19
3,-0.13,1.23,-1.97,38.58
3,-0.11,0.97,-0.16,38.58
3,-0.13,0.87,1.78,38.84
3,-0.13,0.87,1.94,40.83
3,-0.15,0.78,1.94,41.40
3,-0.15,1.02,-0.23,40.62
3,-0.15,1.03,-1.89,46.86
3,-0.14,1.22,-1.89,45.02
3,-0.12,1.07,-1.05,45.02
3,-0.12,0.94,1.06,42.33
3,-0.12,0.94,1.05,46.44
3,-0.13,0.75,2.24,46.44
3,-0.16,0.95,0.70,38.75
3,-0.16,0.95,-1.40,40.31
3,-0.15,1.14,-1.40,40.31
3,-0.11,1.15,-1.66,44.79
3,-0.11,1.14,0.16,47.97
3,-0.11,1.02,0.16,48.39
3,-0.12,0.76,2.11,44.47
3,-0.12,0.89,1.48,41.85
3,-0.15,0.89,1.47,41.37
3,-0.15,1.05,-0.60,41.37
3,-0.13,1.18,-1.86,44.05
3,-0.13,1.18,-0.74,44.44
3,-0.12,1.10,-0.74,44.44
3,-0.12,0.83,1.55,44.48
3,-0.12,0.85,1.94,44.35
3,-0.14,0.85,1.94,44.16
3,-0.16,0.94,0.33,39.46
3,-0.16,1.17,-1.65,40.30
3,-0.14,1.17,-1.65,38.37
3,-0.12,1.15,-1.43,38.37
3,-0.11,0.91,0.72,38.77
3,-0.11,0.91,0.72,41.25
3,-0.14,0.84,2.03,41.25
3,-0.14,0.85,1.22,42.53
3,-0.14,0.82,-1.05,43.97
3,-0.15,1.13,-1.05,44.17
3,-0.12,1.18,-1.77,40.25
3,-0.12,1.02,-0.21,42.36
3,-0.11,1.02,-0.21,40.07
3,-0.12,0.86,1.68,40.07
3,-0.08,0.79,1.86,37.52
3,-0.14,0.79,1.84,43.39
3,-0.15,1.05,-0.22,43.39
3,-0.13,1.16,-1.72,42.52
3,-0.13,1.16,-1.06,40.00
3,-0.11,1.10,-1.06,40.36
3,-0.11,0.92,1.03,40.36
3,-0.11,0.89,2.12,39.45
3,-0.13,0.76,2.12,41.09
3,-0.16,0.96,0.67,41.09
3,-0.16,1.10,-1.26,43.18
3,-0.14,1.10,-1.25,42.82
3,-0.12,1.18,-1.63,42.82
3,-0.11,0.99,0.18,39.91
3,-0.11,0.99,1.97,43.49
3,-0.12,0.79,1.97,43.49
3,-0.16,0.89,1.41,40.70
3,-0.16,0.90,-0.51,42.35
3,-0.14,1.02,-0.51,42.52
3,-0.12,1.20,-1.80,43.30
3,-0.12,1.07,-0.66,41.70
3,-0.12,1.07,-0.66,41.33
3,-0.11,0.86,1.42,41.33
3,-0.08,0.84,1.88,42.26
3,-0.15,0.84,0.36,42.46
3,-0.15,0.93,0.36,42.46
3,-0.14,1.19,-1.58,45.47
3,-0.14,1.19,-1.31,39.06
3,-0.12,1.13,-1.31,38.82
3,-0.12,0.94,0.62,42.73
3,-0.12,0.83,1.95,39.24
3,-0.12,0.83,1.95,37.20
3,-0.15,0.86,1.17,37.20
3,-0.15,1.13,-0.98,41.29
3,-0.15,1.13,-0.94,41.39
3,-0.13,1.15,-1.63,41.39
3,-0.12,1.04,-0.26,41.59
3,-0.12,1.04,1.64,39.64
3,-0.12,0.85,1.64,39.84
3,-0.13,0.82,1.74,44.54
3,-0.13,1.05,-0.18,46.59
3,-0.14,1.05,-0.18,38.71
3,-0.14,1.14,-1.59,38.71
3,-0.19,1.12,-1.05,42.24
3,-0.12,1.12,-1.05,41.42
3,-0.12,0.90,1.01,41.42
3,-0.14,0.79,1.98,42.82
3,-0.14,0.79,0.68,40.32
3,-0.15,0.96,0.68,40.66
3,-0.14,1.09,-1.16,43.79
3,-0.14,1.12,-1.57,38.55
3,-0.13,1.18,-1.57,41.42
3,-0.12,0.97,0.20,41.42
3,-0.12,0.83,1.81,44.32
3,-0.13,0.83,1.76,45.87
3,-0.15,0.89,1.39,45.87
3,-0.14,1.02,-0.47,44.00
3,-0.14,1.02,-1.71,46.14
3,-0.13,1.20,-1.71,46.14
3,-0.12,1.05,-0.60,44.64
3,-0.12,1.01,1.29,42.20
3,-0.12,0.89,1.29,41.89
3,-0.14,0.84,1.83,43.45
3,-0.14,0.94,0.34,40.67
3,-0.15,0.94,0.34,46.92
3,-0.14,1.17,-1.48,46.92
3,-0.18,1.10,-1.21,44.65
3,-0.12,1.10,0.54,38.54
3,-0.11,0.98,0.54,38.54
3,-0.13,0.82,1.90,43.81
3,-0.13,0.82,1.09,41.77
3,-0.14,0.88,1.09,42.05
3,-0.15,1.10,-0.89,42.83
3,-0.15,1.13,-1.54,43.61
3,-0.13,1.13,-1.54,46.59
3,-0.11,1.05,-0.29,46.59
3,-0.11,0.84,1.59,42.93
3,-0.11,0.84,1.57,43.25
3,-0.14,0.84,1.63,43.25
3,-0.14,1.03,-0.11,41.78
3,-0.14,1.03,-1.50,42.14
3,-0.14,1.14,-1.50,41.89
3,-0.13,1.13,-1.01,43.46
3,-0.13,1.15,0.97,41.37
3,-0.11,0.90,0.97,40.73
3,-0.14,0.83,1.84,40.73
3,-0.16,0.93,0.69,40.73
3,-0.16,0.93,0.72,45.52
3,-0.14,1.09,-1.09,45.52
3,-0.12,1.17,-1.48,36.49
3,-0.12,1.17,0.21,40.33
3,-0.12,0.97,0.21,40.33
3,-0.13,0.86,1.68,38.56
3,-0.13,0.86,1.38,38.53
3,-0.14,0.86,1.38,35.40
3,-0.15,1.04,-0.46,35.40
3,-0.15,1.19,-1.58,40.97
3,-0.14,1.19,-1.57,44.45
3,-0.12,1.04,-0.57,44.45
3,-0.11,0.90,1.19,43.97
3,-0.11,0.90,1.78,43.68
3,-0.13,0.83,1.78,43.68
3,-0.15,0.98,0.31,41.60
3,-0.15,0.96,-1.34,45.19
3,-0.14,1.15,-1.34,45.27
3,-0.13,1.10,-1.17,35.87
3,-0.13,0.98,0.49,41.26
3,-0.12,0.98,0.49,43.60
3,-0.13,0.81,1.82,43.60
3,-0.15,0.91,1.02,46.39
3,-0.15,0.91,1.02,47.57
3,-0.15,1.08,-0.79,47.57
3,-0.13,1.13,-1.48,44.03
3,-0.13,1.18,-0.27,40.24
3,-0.10,1.05,-0.27,39.97
3,-0.13,0.84,1.51,39.97
3,-0.13,0.87,1.53,39.11
3,-0.14,0.87,1.53,45.56
3,-0.15,1.00,-0.06,45.56
3,-0.14,1.14,-1.43,42.26
3,-0.14,1.14,-1.44,42.33
3,-0.12,1.12,-0.94,42.33
3,-0.12,0.90,0.92,43.75
3,-0.12,0.90,1.73,39.00
3,-0.15,0.86,1.73,38.55
3,-0.15,0.92,0.71,47.17
3,-0.15,0.92,-1.06,45.02
3,-0.15,1.11,-1.06,43.48
3,-0.12,1.15,-1.36,43.48
3,-0.12,0.98,0.18,42.48
3,-0.12,0.98,0.15,46.39
3,-0.12,0.87,1.58,46.39
3,-0.14,0.86,1.33,36.97
3,-0.14,0.86,-0.44,38.93
3,-0.14,1.06,-0.44,38.93
3,-0.13,1.15,-1.46,42.23
3,-0.13,1.17,-0.57,40.82
3,-0.11,1.05,-0.57,45.38
3,-0.13,0.91,1.14,45.38
3,-0.13,0.82,1.70,43.68
3,-0.13,0.82,1.73,38.43
3,-0.15,0.98,0.30,38.43
3,-0.13,1.12,-1.24,46.88
3,-0.13,1.12,-1.14,42.35
3,-0.12,1.11,-1.14,42.35
3,-0.11,0.98,0.47,41.88
3,-0.11,0.94,1.72,44.12
3,-0.13,0.81,1.72,43.92
3,-0.15,0.92,0.96,43.14
3,-0.15,1.06,-0.71,42.00
3,-0.14,1.06,-0.71,38.86
3,-0.12,1.15,-1.42,38.86
3,-0.07,1.04,-0.25,45.42
3,-0.13,1.04,-0.21,44.39
3,-0.12,0.86,1.42,44.39
3,-0.14,0.88,1.45,40.20
3,-0.14,0.93,0.00,40.92
3,-0.14,0.99,0.00,41.15
3,-0.13,1.15,-1.37,39.58
3,-0.13,1.09,-0.88,42.19
4,-0.12,0.99,0.13,39.10
4,-0.12,0.99,1.50,43.15
4,-0.13,0.87,1.50,43.68
4,-0.14,0.86,1.28,40.54
4,-0.14,1.06,-0.40,42.53
4,-0.14,1.06,-0.42,44.86
4,-0.13,1.13,-1.36,44.86
4,-0.19,1.07,-0.57,43.00
4,-0.12,1.07,1.09,42.57
4,-0.12,0.90,1.09,42.57
4,-0.14,0.83,1.61,40.30
4,-0.14,0.86,0.30,47.68
4,-0.15,0.99,0.30,47.45
4,-0.14,1.10,-1.14,45.10
4,-0.14,1.12,-1.10,44.99
4,-0.12,1.12,-1.10,43.75
4,-0.12,0.97,0.46,43.75
4,-0.07,0.84,1.61,38.09
4,-0.13,0.84,1.58,44.43
4,-0.14,0.92,0.95,44.43
4,-0.14,1.06,-0.64,41.28
4,-0.14,1.06,-1.35,47.17
4,-0.14,1.16,-1.35,47.50
4,-0.13,1.03,-0.22,42.02
4,-0.13,0.88,1.31,41.67
4,-0.14,0.88,1.31,44.31
4,-0.14,0.87,1.41,44.31
4,-0.15,0.99,0.01,43.71
4,-0.15,0.99,0.01,40.61
4,-0.13,1.16,-1.30,40.61
4,-0.12,1.08,-0.81,39.73
4,-0.12,1.08,0.76,44.88
4,-0.13,0.93,0.76,45.25
4,-0.13,0.86,1.58,39.77
4,-0.13,0.87,0.68,37.91
4,-0.14,0.93,0.68,42.59
4,-0.15,1.11,-0.92,42.59
4,-0.15,1.11,-1.17,48.08
4,-0.12,1.11,-1.16,44.52
4,-0.12,1.01,0.09,44.52
4,-0.07,0.86,1.46,48.82
4,-0.13,0.86,1.22,38.40
4,-0.13,0.88,1.22,38.40
4,-0.14,1.05,-0.36,41.45
4,-0.14,1.00,-1.26,39.52
4,-0.13,1.13,-1.26,39.66
4,-0.12,1.07,-0.55,45.14
4,-0.12,0.90,1.06,44.44
4,-0.11,0.90,1.06,45.78
4,-0.14,0.85,1.51,45.78
4,-0.14,0.98,0.31,39.34
4,-0.14,0.98,-1.06,43.78
4,-0.14,1.10,-1.06,43.78
4,-0.13,1.12,-1.05,41.67
4,-0.13,1.07,0.45,41.98
4,-0.12,0.94,0.45,42.13
4,-0.13,0.86,1.52,39.78
4,-0.13,0.91,0.93,46.10
4,-0.14,0.91,0.93,44.72
4,-0.14,1.05,-0.59,44.72
4,-0.13,1.14,-1.26,40.92
4,-0.13,1.14,-1.26,41.78
4,-0.11,1.00,-0.19,41.78
4,-0.12,0.89,1.23,45.84
4,-0.12,0.89,1.35,43.86
4,-0.14,0.88,1.35,43.90
4,-0.14,0.99,0.02,38.41
4,-0.14,0.95,-1.22,43.73
4,-0.14,1.14,-1.22,38.63
4,-0.13,1.07,-0.76,38.63
4,-0.18,0.94,0.71,40.84
4,-0.12,0.94,0.71,34.57
4,-0.13,0.85,1.52,34.57
4,-0.14,0.93,0.64,39.27
4,-0.14,0.93,-0.86,46.75
4,-0.14,1.10,-0.86,46.75
4,-0.13,1.10,-1.11,39.50
4,-0.13,1.12,0.08,40.39
4,-0.13,1.00,0.08,42.26
4,-0.13,0.86,1.39,42.26
4,-0.13,0.89,1.14,38.59
4,-0.14,0.89,1.13,41.52
4,-0.15,1.04,-0.31,41.52
4,-0.14,1.12,-1.21,42.26
4,-0.14,1.12,-0.52,43.05
4,-0.13,1.06,-0.52,43.05
4,-0.12,0.90,1.01,42.83
4,-0.12,0.93,1.42,43.26
4,-0.14,0.87,1.42,43.27
4,-0.14,0.98,0.34,44.05
4,-0.14,1.10,-1.01,41.91
4,-0.14,1.10,-1.01,42.53
4,-0.13,1.11,-0.97,42.53
4,-0.18,0.95,0.42,45.07
4,-0.12,0.95,0.43,46.60
4,-0.13,0.88,1.43,46.60
4,-0.14,0.91,0.90,42.81
4,-0.14,0.93,-0.55,43.67
4,-0.18,1.05,-0.55,43.38
4,-0.21,1.12,-1.13,41.82
4,-0.21,0.99,-0.13,41.09
4,-0.21,0.99,-0.13,39.03
4,-0.06,0.91,1.09,39.03
4,-0.01,0.90,1.12,40.30
4,-0.08,0.90,1.11,43.79
4,-0.21,1.02,-0.08,43.79
4,-0.13,1.11,-0.97,39.33
4,-0.13,1.11,-0.43,41.40
4,-0.08,1.05,-0.43,41.05
4,-0.10,0.95,0.73,44.96
4,-0.10,0.96,1.14,40.55
4,-0.07,0.90,1.14,43.33
4,-0.04,1.00,0.24,43.33
4,-0.04,1.08,-0.72,43.95
4,-0.10,1.08,-0.69,41.55
4,-0.09,1.06,-0.57,41.55
4,-0.04,0.98,0.41,39.89
4,-0.04,0.98,1.07,39.72
4,-0.13,0.89,1.07,39.72
4,-0.18,0.96,0.54,42.66
4,-0.18,1.00,-0.50,43.80
4,-0.15,1.06,-0.50,40.66
4,-0.18,1.07,-0.82,40.66
4,-0.18,0.98,0.03,40.16
4,-0.27,0.98,0.05,43.04
4,-0.23,0.90,0.80,43.04
4,-0.22,0.96,0.42,37.92
4,-0.22,0.96,-0.28,40.54
4,-0.25,1.02,-0.28,40.54
4,-0.17,1.04,-0.36,45.59
4,-0.17,1.01,0.18,38.75
4,-0.05,1.01,0.18,38.36
4,-0.05,0.95,0.60,39.93
4,-0.05,0.98,0.38,41.81
4,-0.12,0.98,0.38,45.69
4,-0.08,1.02,-0.06,45.69
4,-0.10,1.03,-0.15,40.01
4,-0.04,1.03,-0.14,44.23
4,-0.07,1.00,0.18,44.23
4,-0.12,0.98,0.50,40.64
4,-0.12,0.97,0.53,43.99
4,-0.15,0.97,0.53,44.10
4,-0.11,1.00,0.20,43.32
4,-0.11,1.00,-0.04,44.52
4,-0.14,1.00,-0.04,43.90
4,-0.11,1.02,-0.06,43.90
4,-0.06,0.99,0.17,42.92
4,-0.13,0.99,0.17,42.58
4,-0.17,0.97,0.30,42.58
4,-0.19,0.98,0.15,45.37
4,-0.19,0.98,0.01,40.91
4,-0.15,0.99,0.01,41.29
4,-0.17,1.01,-0.04,43.64
4,-0.17,1.05,0.12,40.22
4,-0.18,0.99,0.12,38.31
4,-0.17,0.99,0.22,38.31
4,-0.17,0.98,0.22,36.79
4,-0.16,0.98,0.24,42.96
4,-0.13,0.99,0.11,42.96
4,-0.12,1.02,0.02,43.23
4,-0.12,1.02,0.10,44.51
4,-0.08,1.01,0.10,44.51
4,-0.08,1.00,0.16,39.96
4,-0.08,0.99,0.13,41.27
4,-0.11,0.99,0.13,40.92
4,-0.08,1.00,0.09,37.00
4,-0.08,1.01,0.01,42.07
4,-0.08,1.01,0.01,40.41
4,-0.05,1.00,0.07,40.41
4,-0.04,1.01,0.20,40.46
4,-0.04,1.01,0.39,41.98
4,-0.13,0.98,0.39,41.98
4,-0.17,0.96,0.45,38.76
4,-0.17,0.98,0.37,45.18
4,-0.15,0.98,0.37,45.36
4,-0.19,0.99,0.15,45.36
4,-0.19,1.00,-0.02,41.68
4,-0.20,1.00,-0.02,39.80
4,-0.12,1.00,-0.06,39.80
4,-0.07,1.01,-0.03,42.81
4,-0.07,1.01,-0.05,45.34
4,-0.09,1.01,0.01,45.34
4,-0.09,1.02,-0.06,43.75
4,-0.09,1.02,-0.10,42.89
4,-0.08,1.02,-0.10,42.79
4,-0.09,1.01,-0.03,42.79
4,-0.09,0.99,0.15,37.18
4,-0.09,0.99,0.15,37.53
4,-0.07,0.99,0.28,37.53
4,-0.08,0.99,0.28,45.01
4,-0.08,0.99,0.26,38.66
4,-0.11,0.98,0.26,38.66
4,-0.19,0.98,0.26,42.78
4,-0.19,0.98,0.26,39.14
4,-0.20,0.98,0.26,39.65
4,-0.15,0.98,0.19,42.00
4,-0.15,0.99,0.13,45.08
4,-0.13,0.99,0.13,38.26
4,-0.13,0.99,0.13,38.26
4,-0.13,1.00,0.13,45.06
4,-0.10,1.00,0.18,44.20
4,-0.10,1.01,0.12,44.20
4,-0.10,1.00,0.16,47.50
4,-0.10,1.00,0.24,41.25
4,-0.09,1.00,0.24,41.25
4,-0.13,0.99,0.29,42.41
4,-0.13,0.98,0.26,39.47
4,-0.16,0.98,0.26,39.45
4,-0.14,0.99,0.21,44.94
4,-0.14,0.99,0.19,41.86
4,-0.17,0.99,0.19,39.43
4,-0.18,0.99,0.14,39.43
4,-0.18,0.99,0.12,47.00
4,-0.18,0.99,0.17,43.89
4,-0.19,0.98,0.17,43.89
4,-0.19,0.98,0.16,42.53
4,-0.19,0.94,0.04,42.26
4,-0.17,1.01,0.04,42.27
4,-0.09,1.00,0.18,43.84
4,-0.09,0.97,0.33,41.47
4,-0.18,0.97,0.33,44.03
4,-0.12,0.98,0.34,44.03
4,-0.11,0.99,0.30,40.85
4,-0.11,0.99,0.28,42.57
4,-0.11,0.97,0.35,42.57
4,-0.09,0.97,0.50,40.03
4,-0.09,0.97,0.71,40.74
4,-0.05,0.93,0.71,40.79
4,0.68,0.69,2.64,39.23
4,0.68,-0.04,7.94,42.47
4,-0.74,-0.04,7.94,42.19
4,-0.85,0.48,2.36,42.19
4,-0.85,1.43,-8.00,41.49
5,-0.39,3.08,-8.00,42.56
5,-0.39,0.89,-5.47,45.82
5,-0.73,0.89,-5.47,37.29
5,-0.21,0.10,7.94,37.29
5,-0.20,-0.46,7.94,39.99
5,0.30,-0.46,7.93,43.12
5,-0.31,0.42,0.31,43.12
5,-0.16,2.24,-8.00,43.19
5,-0.16,2.24,-8.00,39.44
5,0.25,1.79,-8.00,39.31
5,-0.02,1.14,2.86,40.09
5,-0.02,-0.36,7.94,44.88
5,0.14,-0.36,7.94,39.90
5,0.48,0.28,7.03,39.90
5,0.46,-0.17,-5.66,40.45
5,-1.42,-0.17,-5.69,41.16
5,-0.06,2.07,-8.00,41.16
5,-0.09,1.24,-1.34,37.35
5,-0.09,1.24,7.94,43.15
5,0.15,-0.43,7.94,43.60
5,0.36,0.16,7.94,39.68
5,0.36,0.17,-2.39,39.34
5,0.03,0.85,-2.39,42.31
5,-0.15,2.03,-8.00,42.31
5,-0.15,2.08,-7.78,41.49
5,0.03,2.08,-7.75,43.09
5,0.10,-0.24,7.94,43.09
5,0.09,0.11,7.94,38.72
5,0.22,0.11,3.30,44.87
5,-0.03,0.39,3.30,44.87
5,-2.17,-0.58,-8.00,44.49
5,-2.17,-0.57,-8.00,42.09
5,-0.42,2.30,-8.00,41.52
5,-0.33,0.64,0.44,41.52
5,-0.33,-0.22,7.94,40.35
5,-0.13,-0.22,7.94,46.47
5,-0.44,0.01,7.94,46.47
5,-0.48,1.38,-5.87,41.62
5,-0.48,1.38,-8.00,40.41
5,-0.29,2.11,-8.00,40.41
5,-0.41,1.22,-5.14,42.88
5,-0.41,1.19,7.94,43.68
5,-0.23,0.19,7.94,43.58
5,-0.08,-0.21,7.94,44.36
5,-0.08,0.62,0.80,43.14
5,-0.53,0.62,0.80,46.02
5,0.08,2.31,-8.00,46.02
5,0.10,1.79,-8.00,44.21
5,0.04,1.79,-7.98,40.61
5,-0.44,0.91,0.15,40.61
5,0.28,-0.34,7.94,43.72
5,0.28,-0.34,5.92,46.02
5,0.16,0.41,5.92,45.47
5,-1.61,-0.40,-4.56,47.04
5,-1.61,-0.43,-8.00,39.24
5,-0.26,2.26,-8.00,43.06
5,0.13,1.11,-1.47,43.06
5,0.15,-0.11,7.94,44.65
5,0.21,-0.11,7.94,39.40
5,0.17,0.14,7.94,39.40
5,-0.16,0.98,-2.02,41.61
5,-0.16,0.98,-8.00,44.60
5,-0.00,2.16,-8.00,44.60
5,0.09,1.74,-7.19,43.79
5,0.09,1.74,6.03,42.49
5,0.56,0.30,6.03,42.45
5,0.19,0.22,7.94,39.32
5,0.19,0.40,3.78,42.00
5,-0.17,0.40,3.77,39.89
5,-1.81,-0.37,-7.80,39.89
5,-1.86,1.92,-8.00,38.32
5,-0.24,1.92,0.56,44.29
5,-0.09,0.75,0.56,44.29
5,-0.51,-0.06,7.94,50.28
5,-0.51,-0.08,7.94,44.38
5,-0.38,0.10,7.94,44.26
5,-0.30,1.40,-4.09,38.78
5,-0.30,1.82,-8.00,43.59
5,-0.38,1.82,-8.00,42.69
5,-0.39,1.27,-4.51,42.69
5,-0.43,0.18,7.94,43.25
5,0.20,0.18,7.94,39.67
5,-0.30,-0.15,7.94,39.67
5,-0.47,0.75,0.90,42.57
5,-0.47,0.80,-8.00,43.54
5,-0.46,1.92,-8.00,43.08
5,0.08,1.73,-8.00,43.08
5,0.08,1.06,0.42,42.22
5,-0.42,1.06,0.42,41.77
5,-0.02,-0.01,7.94,41.77
5,-0.06,0.43,5.50,45.07
5,0.00,0.43,5.45,40.30
5,-1.35,-0.20,-4.86,40.30
5,-0.18,2.16,-8.00,45.70
5,-0.18,2.16,-2.16,45.67
5,0.15,1.19,-2.16,45.56
5,-0.14,0.15,7.94,40.08
5,-0.14,0.15,7.94,38.82
5,-0.04,0.27,7.94,46.49
5,-0.22,0.84,-1.01,46.49
5,-0.22,2.06,-8.00,44.32
5,-0.17,2.06,-7.96,41.23
5,-0.05,1.59,-6.46,41.23
5,0.05,0.29,3.82,45.36
5,0.05,0.29,7.94,44.23
5,0.20,0.20,7.94,44.23
5,-0.29,0.40,3.81,38.80
5,-0.29,0.40,-6.79,41.72
5,-1.26,-0.10,-6.79,42.16
5,-0.16,1.77,-8.00,39.03
5,-0.16,0.95,-0.21,47.40
5,-0.08,0.95,-0.19,44.30
5,-0.36,0.16,7.94,44.30
5,-0.33,0.14,7.29,39.49
5,-0.33,0.14,-3.27,41.88
5,-0.36,1.31,-3.27,41.88
5,-0.32,1.67,-8.00,42.35
5,-0.32,1.67,-4.60,43.93
5,-0.24,1.48,-4.60,44.18
5,0.66,0.25,7.94,46.53
5,0.66,0.13,7.94,41.18
5,-0.07,0.13,7.94,41.34
5,-0.39,0.76,1.37,41.34
5,-0.41,1.75,-8.00,43.27
5,-0.22,1.75,-7.99,44.36
5,0.04,1.79,-7.68,44.36
5,-0.11,0.90,1.27,48.11
5,-0.11,0.90,7.94,49.11
5,-0.17,-0.05,7.94,48.79
5,-0.02,0.50,5.49,45.66
5,-0.02,-0.02,-3.39,39.02
5,-1.57,-0.02,-3.39,45.13
5,-0.17,2.10,-8.00,45.13
5,-0.16,1.16,-2.43,42.41
5,0.15,1.16,-2.38,40.48
5,0.21,0.42,7.94,40.48
5,-0.34,0.31,6.22,42.57
5,-0.34,0.31,-0.73,43.48
5,-0.29,0.81,-0.73,43.60
5,-0.22,1.96,-8.00,41.25
5,-0.22,1.95,-5.95,43.97
5,-0.12,1.51,-5.95,45.38
5,0.06,0.83,3.01,45.38
5,0.06,0.27,7.94,49.19
5,0.04,0.27,7.88,42.29
5,-0.30,0.45,3.81,42.29
5,-0.59,0.23,-5.01,44.87
5,-0.59,0.23,-7.97,47.87
5,-0.16,1.73,-7.97,47.87
5,-0.09,1.05,-0.71,42.12
5,-0.09,1.03,7.94,48.10
5,-0.50,0.28,7.94,47.85
5,-0.51,0.11,5.85,40.80
5,-0.51,1.12,-3.36,46.25
5,-0.57,1.12,-3.36,43.83
5,-0.24,1.63,-8.00,43.83
5,-0.25,1.55,-4.47,46.14
5,-0.12,1.55,4.83,46.42
5,0.33,0.24,4.83,46.42
5,0.10,0.08,7.94,39.04
5,0.10,0.07,1.64,42.43
5,-0.30,0.76,1.64,42.92
5,-0.17,1.65,-7.15,44.49
5,-0.17,1.80,-7.18,41.59
5,0.04,1.80,-7.18,42.29
5,-0.02,0.85,1.16,42.29
5,-0.02,0.20,7.94,42.79
5,-0.08,0.20,7.94,45.89
5,-0.14,0.47,5.19,45.89
5,-0.75,0.40,-2.39,47.15
5,-0.75,0.40,-8.00,51.83
5,-0.12,1.97,-8.00,51.77
5,0.07,1.13,-2.41,43.15
5,0.07,0.29,7.94,44.08
5,0.19,0.29,7.94,48.41
5,-0.15,0.38,6.27,48.41
5,-0.18,0.92,-0.58,46.22
5,-0.43,0.92,-0.59,44.03
5,-0.27,1.82,-7.46,44.03
5,-0.09,1.47,-5.57,43.82
5,-0.09,1.47,2.15,46.96
5,-0.00,0.94,2.15,47.68
5,-0.06,0.12,7.94,39.85
5,-0.06,0.11,3.63,41.85
5,-0.29,0.61,3.63,40.96
5,-0.60,0.58,-3.27,40.96
5,-0.60,1.64,-7.29,42.31
5,-0.11,1.64,-7.27,44.96
5,-0.09,1.13,-0.96,44.96
5,-0.09,0.25,7.14,38.46
5,-0.34,0.25,5.04,40.58
5,-0.23,0.45,5.04,40.58
5,-0.63,1.11,-3.47,43.90
5,-0.63,1.10,-7.31,50.21
5,-0.19,1.72,-7.31,50.33
5,-0.05,1.44,-4.34,43.28
5,-0.05,0.44,4.99,43.57
5,0.43,0.44,4.99,48.76
5,0.04,0.32,7.94,48.76
5,0.05,0.78,1.94,45.58
5,-0.26,0.78,-7.06,40.61
5,-0.07,1.64,-7.06,40.61
5,0.00,1.70,-6.56,42.71
5,0.00,1.71,0.92,42.97
5,0.03,0.84,0.92,42.85
5,-0.09,0.39,6.07,48.34
5,-0.09,0.38,4.65,39.19
5,-0.34,0.38,4.65,41.29
5,-0.86,0.52,-1.84,41.29
5,-0.87,1.82,-7.30,40.24
5,-0.12,1.82,-7.28,41.87
5,-0.00,1.13,-2.47,41.87
5,0.12,0.58,5.93,39.21
5,0.12,0.58,7.94,43.20
5,-0.08,0.28,7.94,43.14
5,-0.34,1.02,-0.81,41.57
5,-0.34,1.02,-6.48,42.17
5,-0.26,1.64,-6.48,40.44
5,-0.11,1.44,-5.29,40.44
5,-0.10,0.95,0.95,41.20
5,-0.22,0.95,0.96,39.00
5,-0.11,0.27,7.09,39.00
5,-0.27,0.69,2.90,42.98
5,-0.27,0.69,-5.27,42.25
5,-0.90,0.47,-5.27,42.25
5,-0.10,1.69,-6.68,44.04
5,-0.10,1.69,-1.18,41.82
5,-0.04,1.13,-1.18,42.72
5,-0.07,0.22,6.45,42.72
5,-0.07,0.46,6.16,44.93
5,-0.20,0.46,6.13,39.83
5,-0.35,1.03,-1.43,39.83
5,-0.34,1.69,-6.56,44.36
6,-0.03,1.61,-6.02,45.20
6,-0.06,0.90,0.51,46.90
6,0.00,0.90,0.55,41.94
6,-0.21,0.36,5.61,41.94
6,-0.20,0.56,4.34,42.90
6,-0.20,0.55,-0.47,43.07
6,-0.76,0.42,-0.47,43.69
6,-0.16,1.64,-6.60,43.69
6,-0.16,1.23,-2.58,39.68
6,-0.04,1.23,-2.58,41.79
6,0.41,0.38,6.81,41.79
6,0.40,0.29,6.79,45.29
6,-0.17,0.29,6.76,45.32
6,-0.34,1.11,-0.61,45.32
6,-0.20,1.49,-5.70,45.65
6,-0.20,1.49,-5.05,42.19
6,-0.11,1.50,-5.05,42.13
6,-0.14,0.86,1.20,38.22
6,-0.14,0.87,6.95,46.75
6,-0.08,0.30,6.95,44.67
6,-0.27,0.64,3.47,44.67
6,-0.25,0.94,-4.03,41.81
6,-0.25,0.94,-4.01,43.49
6,-0.09,1.62,-6.19,43.49
6,-0.03,1.14,-1.33,46.07
6,-0.03,1.14,6.60,39.91
6,0.14,0.50,6.60,39.91
6,-0.18,0.49,5.55,37.06
6,-0.18,0.47,-0.38,49.47
6,-0.28,0.97,-0.38,49.85
6,-0.13,1.55,-5.99,42.02
6,-0.13,1.41,-3.91,40.10
6,-0.02,1.41,-3.93,43.57
6,0.09,0.81,3.01,43.57
6,0.10,0.44,6.53,44.31
6,-0.09,0.44,2.19,43.64
6,-0.24,0.68,2.19,43.64
6,-0.20,1.40,-4.63,40.26
6,-0.20,1.43,-5.58,41.98
6,-0.08,1.56,-5.58,41.98
6,-0.05,0.96,0.10,49.82
6,-0.05,0.55,5.82,45.28
6,-0.20,0.55,5.82,44.62
6,-0.22,0.48,4.69,44.62
6,-0.23,0.71,-1.69,38.08
6,-0.30,0.71,-1.70,44.21
6,-0.16,1.59,-5.95,44.21
6,-0.05,1.22,-2.68,43.64
6,-0.05,1.25,4.45,41.52
6,0.25,0.69,4.45,41.47
6,-0.17,0.39,6.15,47.74
6,-0.17,0.96,0.48,42.01
6,-0.20,0.96,0.48,42.91
6,-0.19,1.41,-5.04,42.91
6,-0.22,1.50,-4.80,40.92
6,-0.10,1.50,-4.76,45.39
6,-0.07,0.86,1.30,45.39
6,-0.22,0.44,5.17,45.47
6,-0.22,0.44,3.45,45.77
6,-0.25,0.64,3.45,45.44
6,-0.19,0.85,-3.49,42.31
6,-0.19,0.81,-5.77,50.22
6,-0.06,1.56,-5.77,52.48
6,-0.04,1.14,-1.37,52.48
6,-0.04,0.61,5.72,45.80
6,0.20,0.61,5.74,40.95
6,-0.19,0.51,5.24,40.95
6,-0.23,0.94,-0.04,43.45
6,-0.23,0.94,-5.47,44.12
6,-0.14,1.48,-5.47,44.12
6,-0.06,1.39,-3.71,38.82
6,-0.06,1.41,2.34,38.41
6,-0.04,0.97,2.34,38.58
6,-0.15,0.48,5.71,46.41
6,-0.15,0.71,2.22,41.18
6,-0.25,0.71,2.23,40.84
6,-0.23,1.45,-4.20,40.84
6,-0.23,1.50,-5.17,45.58
6,-0.10,1.50,-0.18,41.13
6,-0.06,1.02,-0.18,41.13
6,-0.31,0.50,5.05,43.29
6,-0.31,0.46,4.46,40.04
6,-0.23,0.52,4.46,39.91
6,-0.39,0.90,-1.76,45.39
6,-0.39,1.46,-5.46,44.71
6,-0.13,1.46,-5.46,43.98
6,-0.08,1.32,-2.67,43.98
6,-0.09,0.62,3.68,44.70
6,0.04,0.62,3.67,43.60
6,-0.12,0.44,5.55,43.60
6,-0.30,0.87,0.74,41.95
6,-0.30,0.87,-4.53,41.80
6,-0.19,1.43,-4.53,42.11
6,-0.08,1.51,-4.54,44.46
6,-0.08,0.85,1.14,41.69
6,-0.04,0.85,1.14,41.03
6,-0.27,0.43,4.86,41.03
6,-0.29,0.64,3.36,41.10
6,-0.23,0.64,3.33,43.15
6,-0.24,0.95,-2.80,43.15
6,-0.07,1.55,-5.35,44.53
6,-0.07,1.55,-1.39,47.96
6,-0.04,1.15,-1.39,48.49
6,-0.01,0.23,4.96,43.00
6,-0.01,0.20,4.87,46.16
6,-0.16,0.51,4.87,47.86
6,-0.24,0.96,-0.05,47.86
6,-0.24,1.45,-4.97,47.11
6,-0.16,1.45,-4.97,45.94
6,-0.09,1.37,-3.53,45.94
6,-0.12,0.85,1.74,43.52
6,-0.12,0.85,5.54,43.28
6,-0.19,0.42,5.54,43.28
6,-0.27,0.79,2.05,40.03
6,-0.27,0.79,-3.62,42.43
6,-0.21,1.35,-3.62,42.74
6,-0.11,1.45,-4.80,44.31
6,-0.11,1.03,-0.37,44.28
6,-0.07,1.03,-0.37,40.01
6,0.03,0.46,5.70,40.01
6,0.02,0.59,4.13,41.39
6,-0.23,0.59,-0.75,42.03
6,-0.07,0.87,-0.75,42.03
6,-0.10,1.44,-4.98,48.24
6,-0.10,1.41,-2.61,43.89
6,-0.07,1.29,-2.61,43.82
6,-0.03,0.60,3.24,46.17
6,-0.03,0.56,5.06,44.24
6,-0.11,0.56,5.06,44.25
6,-0.25,0.88,0.86,44.25
6,-0.30,1.33,-4.05,43.18
6,-0.18,1.33,-4.00,44.65
6,-0.07,1.48,-4.25,44.65
6,-0.03,0.88,0.85,47.41
6,-0.03,0.88,4.49,44.35
6,-0.26,0.59,4.49,44.34
6,-0.23,0.65,3.29,41.99
6,-0.23,0.66,-2.36,43.91
6,0.38,1.53,-2.36,48.97
6,-0.13,1.54,-4.86,48.97
6,-0.13,1.13,-1.50,43.11
6,-0.06,1.13,-1.46,46.38
6,0.04,0.60,3.79,46.38
6,-0.22,0.51,4.64,43.40
6,-0.22,0.51,0.70,41.62
6,-0.16,0.89,0.70,41.62
6,-0.17,1.44,-4.41,36.48
6,-0.17,1.46,-3.42,44.45
6,-0.11,1.34,-3.42,46.09
6,-0.08,0.84,1.79,46.09
6,-0.08,0.58,4.26,49.50
6,-0.23,0.58,4.28,47.74
6,-0.26,0.79,2.03,47.74
6,-0.26,1.26,-3.08,39.80
6,-0.20,1.26,-4.51,40.67
6,-0.11,1.47,-4.51,40.67
6,-0.07,1.05,-0.45,46.19
6,-0.07,1.06,5.19,46.50
6,0.07,0.56,5.19,46.70
6,-0.20,0.63,3.91,48.26
6,-0.20,0.98,-0.41,41.94
6,-0.24,0.98,-0.41,43.51
6,-0.12,1.52,-4.56,43.51
6,-0.06,1.23,-2.52,43.54
6,-0.06,1.23,-2.53,45.58
6,0.06,0.90,2.78,45.58
6,-0.20,0.54,4.49,47.15
6,-0.20,0.55,0.81,40.41
6,-0.31,0.86,0.81,40.02
6,-0.18,1.37,-3.59,39.24
6,-0.18,1.37,-3.96,47.91
6,-0.08,1.37,-3.96,40.34
6,-0.05,0.93,0.67,40.34
6,-0.03,0.53,5.18,41.28
6,-0.09,0.53,5.13,40.95
6,-0.20,0.68,3.20,40.95
6,0.65,1.97,-1.89,44.47
6,0.65,1.97,-4.46,45.22
6,-0.12,1.44,-4.46,44.61
6,-0.08,1.14,-1.53,51.66
6,-0.08,1.15,3.36,48.59
6,0.02,0.71,3.36,46.47
6,-0.19,0.55,4.60,46.47
6,-0.16,0.66,0.83,44.95
6,-0.41,0.66,0.86,41.24
6,-0.17,1.40,-3.96,41.24
6,-0.08,1.30,-3.26,43.54
6,-0.08,1.30,1.49,41.03
6,-0.06,0.88,1.49,41.03
6,-0.17,0.61,4.76,41.17
6,-0.17,0.59,1.90,47.27
6,-0.25,0.84,1.90,45.26
6,-0.19,1.19,-2.63,45.26
6,-0.19,1.41,-4.20,46.46
6,-0.10,1.41,-4.19,43.08
6,-0.06,1.09,-0.57,43.08
6,-0.04,0.53,3.88,39.93
6,0.02,0.53,3.80,40.85
6,-0.17,0.67,3.80,40.85
6,-0.22,0.95,-0.42,50.80
6,-0.22,0.96,-4.17,43.64
6,-0.13,1.46,-4.17,43.30
6,-0.07,1.23,-2.45,40.17
6,-0.07,0.83,2.35,40.83
6,-0.06,0.83,2.35,40.81
6,-0.27,0.54,4.19,40.81
6,-0.28,0.86,1.00,40.17
6,-0.28,0.86,0.99,41.61
6,-0.18,1.32,-3.20,41.61
6,-0.10,1.36,-3.74,41.42
6,-0.10,1.34,0.42,40.37
6,-0.08,0.97,0.42,40.58
6,-0.06,0.61,4.56,45.28
6,-0.06,0.68,3.11,43.15
6,-0.21,0.68,3.11,45.08
6,0.42,1.70,-1.68,45.08
6,0.38,1.42,-4.09,43.42
6,-0.12,1.42,-4.10,44.39
6,-0.08,1.14,-1.60,44.39
6,-0.05,0.68,3.09,38.61
6,-0.05,0.68,3.97,39.52
6,-0.16,0.60,3.97,39.21
6,-0.19,0.95,0.70,45.48
6,-0.19,0.99,-3.53,46.35
6,-0.16,1.30,-3.53,38.62
6,-0.08,1.33,-3.13,38.62
6,-0.08,0.89,1.23,45.67
6,-0.07,0.89,1.22,44.94
6,-0.11,0.52,4.84,44.94
6,-0.22,0.81,2.04,47.04
6,-0.22,0.81,-2.22,46.14
6,-0.18,1.20,-2.22,46.14
7,-0.13,1.37,-3.82,43.90
7,-0.09,1.26,-2.38,43.90
7,-0.10,0.82,1.96,38.45
7,-0.10,0.87,3.83,43.44
7,-0.21,0.62,3.83,43.11
7,-0.28,0.83,1.09,39.97
7,-0.28,1.29,-2.89,41.72
7,-0.19,1.29,-2.89,46.42
7,-0.12,1.35,-3.51,46.42
7,-0.08,1.01,0.19,40.84
7,-0.08,1.01,0.22,40.57
7,-0.08,0.53,4.41,40.57
7,-0.21,0.69,2.87,43.68
7,-0.21,0.69,-1.52,45.44
7,-0.14,1.13,-1.52,45.82
7,-0.12,1.38,-3.83,40.33
7,-0.12,1.21,-1.61,44.63
7,-0.08,1.21,-1.61,43.12
7,-0.00,0.76,2.78,43.12
7,-0.02,0.63,3.36,42.75
7,-0.27,0.63,3.32,41.05
7,-0.20,0.90,0.76,41.05
7,-0.15,1.34,-3.23,46.64
7,-0.15,1.34,-3.01,46.15
7,-0.10,1.33,-3.01,46.84
7,-0.08,0.91,1.10,42.14
7,-0.08,0.90,4.46,44.53
7,-0.06,0.59,4.46,44.82
7,-0.20,0.78,2.01,44.82
7,-0.20,1.23,-2.18,44.04
7,-0.21,1.23,-2.19,44.65
7,-0.11,1.40,-3.69,44.65
7,-0.09,1.09,-0.72,43.96
7,-0.09,1.09,3.23,42.18
7,0.04,0.68,3.23,42.18
7,-0.18,0.63,3.57,44.53
7,-0.18,0.67,0.04,40.21
7,-0.34,0.74,0.04,40.13
7,-0.14,1.41,-3.53,44.05
7,-0.14,1.23,-2.28,39.69
7,-0.09,1.23,-2.28,43.17
7,-0.10,0.80,1.81,43.17
7,-0.08,0.68,3.72,41.51
7,-0.14,0.68,1.12,39.86
7,-0.27,0.87,1.12,39.86
7,-0.18,1.29,-2.59,44.63
7,-0.18,1.26,-3.29,38.99
7,-0.11,1.32,-3.29,38.63
7,-0.08,1.01,0.12,45.68
7,-0.08,0.68,3.53,41.98
7,0.00,0.68,3.53,44.84
7,-0.17,0.73,2.74,44.84
7,-0.16,1.10,-1.29,45.18
7,-0.16,1.10,-1.27,43.00
7,-0.12,1.39,-3.52,43.00
7,-0.10,1.16,-1.55,44.53
7,-0.10,1.16,2.49,42.33
7,0.01,0.87,2.49,42.97
7,-0.26,0.65,3.22,40.62
7,-0.26,0.92,0.82,44.08
7,-0.19,0.92,0.82,44.83
7,-0.15,1.33,-2.94,44.83
7,-0.17,1.27,-2.83,44.27
7,-0.10,1.27,-2.82,40.01
7,-0.08,0.92,0.93,40.01
7,-0.10,0.66,3.86,44.49
7,-0.10,0.66,2.01,43.25
7,-0.20,0.80,2.01,43.27
7,-0.20,1.23,-1.96,41.71
7,-0.20,1.24,-3.40,41.03
7,-0.13,1.36,-3.40,48.00
7,-0.09,1.08,-0.75,48.00
7,-0.09,0.71,2.94,40.56
7,-0.00,0.71,2.97,44.56
7,-0.19,0.71,3.03,44.56
7,-0.19,0.55,0.22,40.52
7,-0.51,0.55,-3.20,42.42
7,-0.16,1.37,-3.20,42.42
7,-0.09,1.20,-2.17,44.33
7,-0.09,1.22,1.53,40.15
7,-0.10,0.85,1.53,40.30
7,-0.11,0.60,3.98,40.30
7,-0.11,0.88,1.19,45.15
7,-0.23,0.88,1.19,42.49
7,-0.16,1.23,-2.30,42.49
7,-0.17,1.30,-3.08,39.20
7,-0.11,1.30,-3.09,43.75
7,-0.08,1.01,0.04,43.75
7,-0.03,0.59,3.25,45.84
7,-0.03,0.58,2.51,44.98
7,-0.20,0.77,2.51,44.64
7,-0.15,1.09,-1.10,39.94
7,-0.15,1.34,-3.25,45.02
7,-0.12,1.34,-3.25,42.07
7,-0.09,1.16,-1.53,42.07
7,-0.07,0.83,2.21,42.41
7,-0.07,0.83,2.22,46.16
7,-0.19,0.72,3.09,46.16
7,-0.15,0.96,0.90,41.45
7,-0.15,0.96,-2.68,48.41
7,-0.15,1.29,-2.68,48.16
7,-0.12,1.27,-2.65,45.03
7,-0.12,1.30,0.75,43.06
7,-0.09,0.93,0.75,38.75
7,-0.04,0.73,3.38,38.75
7,-0.01,0.80,2.01,37.79
7,-0.19,0.80,2.01,43.05
7,-0.16,1.14,-1.55,43.05
7,-0.11,1.30,-3.16,41.68
7,-0.11,1.30,-0.81,45.60
7,-0.10,1.09,-0.81,45.60
7,-0.02,0.82,2.66,41.15
7,-0.02,0.81,2.88,42.73
7,-0.22,0.69,2.88,44.03
7,-0.19,1.04,-0.09,44.03
7,-0.19,1.29,-2.94,44.84
7,-0.14,1.29,-2.99,51.08
7,-0.10,1.22,-2.11,51.08
7,-0.09,0.87,1.42,42.02
7,-0.09,0.87,3.64,41.97
7,-0.16,0.62,3.64,41.97
7,-0.17,0.83,1.44,41.82
7,-0.17,0.84,-2.06,44.70
7,-0.15,1.22,-2.06,45.03
7,-0.12,1.30,-2.91,42.68
7,-0.12,1.02,-0.07,41.76
7,-0.09,1.02,-0.07,44.66
7,-0.03,0.69,3.02,44.66
7,-0.04,0.74,2.50,38.39
7,-0.17,0.74,2.52,42.86
7,-0.13,1.08,-0.85,42.86
7,-0.12,1.33,-3.04,44.40
7,-0.12,1.36,-1.48,46.76
7,-0.11,1.17,-1.48,46.30
7,-0.10,0.78,2.00,45.52
7,-0.10,0.66,3.37,40.89
7,-0.17,0.66,3.37,35.83
7,-0.18,0.96,0.77,35.83
7,-0.16,1.28,-2.47,40.30
7,-0.16,1.28,-2.44,43.44
7,-0.12,1.26,-2.50,43.44
7,-0.10,0.94,0.64,43.33
7,-0.10,0.94,3.16,42.90
7,-0.08,0.61,3.16,42.89
7,-0.15,0.79,2.06,40.54
7,-0.15,0.76,-1.41,38.90
7,-0.18,1.14,-1.41,43.28
7,-0.12,1.30,-2.94,43.28
7,-0.12,1.09,-0.82,40.59
7,-0.10,1.09,-0.82,39.70
7,-0.07,0.83,2.43,39.70
7,-0.21,0.73,2.75,39.71
7,-0.21,0.73,-0.02,47.52
7,-0.52,0.60,-0.02,47.52
7,-0.13,1.32,-2.70,43.91
7,-0.13,1.33,-2.02,41.93
7,-0.10,1.20,-2.02,42.08
7,-0.09,0.87,1.27,38.95
7,-0.09,0.70,3.17,40.66
7,-0.08,0.70,3.14,44.98
7,-0.18,0.87,1.39,44.98
7,-0.15,1.16,-1.87,46.04
7,-0.15,1.16,-2.74,39.12
7,-0.12,1.29,-2.74,39.12
7,-0.11,1.00,-0.12,39.42
7,-0.11,1.01,2.76,42.89
7,-0.08,0.70,2.76,42.23
7,-0.18,0.79,2.34,50.07
7,-0.18,1.04,-0.74,46.19
7,-0.18,1.04,-0.74,48.00
7,-0.12,1.31,-2.80,48.00
7,-0.10,1.14,-1.42,45.26
7,-0.10,1.14,-1.38,44.34
7,-0.10,0.81,1.81,44.34
7,-0.17,0.68,3.24,46.08
7,-0.17,0.66,0.79,47.79
7,-0.16,0.98,0.79,47.90
7,-0.15,1.24,-2.25,45.55
7,-0.15,1.22,-2.36,42.80
7,-0.12,1.22,-2.36,43.73
7,-0.09,0.96,0.53,43.73
7,-0.12,0.67,2.94,45.43
7,-0.06,0.67,2.94,51.66
7,-0.15,0.82,2.00,51.66
7,-0.17,1.07,-1.27,44.60
7,-0.17,1.07,-2.71,41.58
7,-0.12,1.28,-2.71,41.59
7,-0.11,1.07,-0.82,45.50
7,-0.11,1.11,2.23,44.33
7,-0.11,0.79,2.23,42.97
7,-0.20,0.73,2.76,42.97
7,-0.20,0.38,0.06,42.59
7,-0.74,0.38,0.03,40.15
7,-0.14,1.27,-2.47,40.15
7,-0.16,1.18,-1.93,41.18
7,-0.10,1.18,1.13,43.42
7,-0.10,0.90,1.13,43.42
7,-0.08,0.76,2.95,43.73
7,-0.08,0.75,1.38,45.21
7,-0.16,0.88,1.38,44.63
7,-0.16,1.15,-1.67,43.06
7,-0.16,1.26,-2.56,45.64
7,-0.12,1.26,-2.56,45.88
7,-0.10,1.03,-0.18,45.88
7,-0.07,0.85,2.53,43.19
7,-0.07,0.85,2.32,49.31
7,-0.22,0.76,2.32,49.31
7,-0.17,1.01,-0.61,47.34
7,-0.17,1.03,-2.58,44.04
7,-0.12,1.28,-2.58,44.46
7,-0.12,1.14,-1.40,45.24
7,-0.12,0.84,1.64,35.40
7,-0.11,0.84,1.64,41.77
7,-0.13,0.72,2.87,41.77
7,-0.17,0.96,0.82,46.54
7,-0.17,0.96,0.84,37.87
7,-0.15,1.23,-2.03,37.87
7,-0.12,1.22,-2.24,47.26
7,-0.12,1.22,0.42,42.58
7,-0.11,0.97,0.42,42.76
7,-0.08,0.71,2.76,47.46
7,-0.08,0.70,1.86,46.06
7,-0.17,0.83,1.86,49.22
7,-0.19,1.11,-1.07,49.22
7,-0.24,1.26,-2.56,47.73
7,-0.12,1.26,-2.52,43.05
7,-0.11,1.10,-0.83,43.05
7,-0.12,0.79,2.07,40.87
7,-0.12,0.79,2.61,42.42
7,-0.13,0.75,2.61,42.24
7,-0.16,1.05,0.12,47.73
7,-0.16,1.03,-2.28,41.87
8,-0.13,1.24,-2.38,47.95
8,-0.13,1.19,-0.22,42.64
8,-0.12,1.00,-0.22,42.67
8,-0.12,0.79,2.35,45.02
8,-0.12,0.79,2.27,49.29
8,-0.16,0.79,2.27,43.72
8,-0.18,1.00,-0.41,43.72
8,-0.19,1.24,-2.40,45.30
8,-0.12,1.24,-2.41,43.32
8,-0.11,1.13,-1.35,43.32
8,-0.11,0.86,1.49,37.58
8,-0.11,0.86,2.68,42.71
8,-0.12,0.75,2.68,42.78
8,-0.35,0.72,0.76,45.13
8,-0.35,1.19,-1.87,43.43
8,-0.14,1.19,-1.87,41.40
8,-0.11,1.21,-2.11,41.40
8,-0.10,0.97,0.35,43.78
8,-0.10,0.97,0.36,39.36
8,-0.10,0.77,2.55,39.36
8,-0.16,0.84,1.82,42.04
8,-0.16,0.84,-0.92,50.88
8,-0.16,1.09,-0.92,50.87
8,-0.12,1.24,-2.40,42.25
8,-0.12,1.22,-0.82,47.57
8,-0.11,1.09,-0.82,42.53
8,-0.11,0.82,1.91,42.53
8,-0.11,0.75,2.49,45.62
8,-0.16,0.75,2.50,44.30
8,-0.16,0.95,0.19,44.30
8,-0.14,1.22,-2.13,43.95
8,-0.14,1.22,-1.75,42.11
8,-0.12,1.17,-1.75,42.11
8,-0.11,0.91,0.90,38.19
8,-0.11,0.91,2.61,42.65
8,-0.10,0.73,2.61,43.00
8,-0.16,0.87,1.37,43.00
8,-0.16,1.14,-1.38,43.46
8,-0.15,1.14,-1.38,50.29
8,-0.13,1.24,-2.26,50.29
8,-0.17,1.04,-0.25,43.52
8,-0.11,1.04,2.22,45.10
8,-0.11,0.80,2.22,45.10
8,-0.15,0.79,2.18,50.66
8,-0.15,0.77,-0.34,42.99
8,-0.16,1.02,-0.34,42.77
8,-0.13,1.21,-2.26,44.33
8,-0.13,1.14,-1.31,44.46
8,-0.12,1.14,-1.31,41.57
8,-0.11,0.87,1.39,41.57
8,-0.08,0.73,2.56,41.74
8,-0.14,0.73,2.52,48.38
8,-0.16,0.92,0.77,48.38
8,-0.14,1.17,-1.73,44.94
8,-0.14,1.17,-2.02,46.75
8,-0.13,1.21,-2.02,46.35
8,-0.10,0.97,0.31,42.44
8,-0.10,1.00,2.39,44.58
8,-0.12,0.81,2.39,41.68
8,-0.15,0.85,1.77,41.68
8,-0.15,1.08,-0.83,44.71
8,-0.15,1.08,-0.81,42.48
8,-0.13,1.22,-2.25,42.48
8,-0.11,1.07,-0.79,41.06
8,-0.11,1.07,1.78,39.84
8,-0.12,0.83,1.78,39.84
8,-0.15,0.79,2.37,40.11
8,-0.15,0.76,0.27,41.47
8,-0.12,1.01,0.27,44.61
8,-0.13,1.20,-1.99,44.61
8,-0.13,1.17,-1.67,46.63
8,-0.12,1.17,-1.68,45.03
8,-0.10,0.92,0.82,45.03
8,-0.12,0.76,2.47,40.94
8,-0.12,0.76,1.30,43.48
8,-0.18,0.84,1.30,43.48
8,-0.15,1.12,-1.26,42.26
8,-0.15,1.09,-2.13,45.67
8,-0.12,1.22,-2.13,45.39
8,-0.11,1.04,-0.27,41.47
8,-0.11,0.81,2.08,45.88
8,-0.11,0.81,2.08,42.00
8,-0.15,0.81,2.07,42.00
8,-0.15,1.03,-0.27,41.71
8,-0.15,1.03,-2.10,43.67
8,-0.13,1.21,-2.10,43.67
8,-0.12,1.14,-1.24,39.95
8,-0.12,1.13,1.29,47.79
8,-0.11,0.88,1.29,47.86
8,-0.13,0.75,2.42,36.89
8,-0.13,0.93,0.80,44.61
8,-0.15,0.93,0.80,45.98
8,-0.15,1.15,-1.60,45.98
8,-0.13,1.18,-1.91,43.07
8,-0.13,1.18,-1.93,40.31
8,-0.12,0.98,0.25,40.31
8,-0.12,0.81,2.26,37.49
8,-0.12,0.81,1.71,41.11
8,-0.16,0.82,1.71,41.25
8,-0.14,1.08,-0.74,45.95
8,-0.14,1.09,-2.12,42.69
8,-0.13,1.22,-2.12,43.43
8,-0.11,1.08,-0.77,43.43
8,-0.11,0.85,1.66,41.69
8,-0.11,0.85,1.64,44.81
8,-0.14,0.77,2.26,44.81
8,-0.15,0.99,0.30,40.14
8,-0.15,0.99,-1.87,48.04
8,-0.14,1.18,-1.87,48.04
8,-0.12,1.17,-1.58,48.46
8,-0.12,1.18,0.75,39.71
8,-0.11,0.93,0.75,39.24
8,-0.13,0.78,2.33,42.37
8,-0.13,0.85,1.26,44.68
8,-0.16,0.85,1.27,45.04
8,-0.14,1.12,-1.17,45.04
8,-0.19,1.21,-2.02,48.20
8,-0.12,1.21,-0.28,41.55
8,-0.10,1.03,-0.28,41.55
8,-0.12,0.81,1.95,46.99
8,-0.12,0.87,1.98,42.71
8,-0.14,0.81,1.98,42.64
8,-0.15,1.02,-0.21,44.99
8,-0.15,1.20,-1.99,42.85
8,-0.13,1.20,-1.99,48.99
8,-0.12,1.12,-1.20,48.99
8,-0.11,0.88,1.20,45.63
8,-0.11,0.88,1.24,40.61
8,-0.13,0.77,2.30,40.61
8,-0.15,0.92,0.78,42.41
8,-0.15,0.90,-1.50,41.88
8,-0.14,1.15,-1.50,41.71
8,-0.12,1.19,-1.82,45.62
8,-0.12,0.98,0.23,43.20
8,-0.11,0.98,0.23,44.34
8,-0.12,0.81,2.15,44.34
8,-0.09,0.84,1.63,46.25
8,-0.15,0.84,1.63,43.02
8,-0.14,1.06,-0.68,43.02
8,-0.13,1.20,-2.01,43.60
8,-0.13,1.20,-0.75,41.72
8,-0.11,1.07,-0.75,41.51
8,-0.12,0.85,1.57,41.51
8,-0.12,0.86,2.15,41.43
8,-0.14,0.80,2.15,50.92
8,-0.15,0.99,0.30,50.92
8,-0.15,1.17,-1.74,43.11
8,-0.15,1.17,-1.74,39.33
8,-0.08,1.15,-1.43,39.33
8,-0.13,0.94,0.76,40.07
8,-0.13,0.94,2.11,45.93
8,-0.20,0.77,2.11,45.93
8,-0.10,0.91,0.98,41.90
8,-0.10,0.89,-1.18,52.77
8,-0.09,1.14,-1.18,52.44
8,-0.27,1.16,-1.67,46.18
8,-0.27,0.96,0.28,41.89
8,-0.07,0.96,0.29,42.59
8,-0.04,0.86,1.48,42.59
8,-0.04,0.94,0.71,44.97
8,-0.23,0.94,-0.49,41.77
8,-0.19,1.05,-0.49,41.77
8,-0.05,1.09,-0.69,42.85
8,-0.05,1.12,0.17,44.12
8,-0.08,1.00,0.17,43.89
8,-0.16,0.91,0.94,39.19
8,-0.16,0.94,0.67,38.95
8,-0.11,0.94,0.67,37.82
8,-0.08,1.03,-0.22,37.82
8,-0.09,1.06,-0.56,43.53
8,-0.09,1.06,-0.53,43.21
8,-0.09,1.02,-0.03,43.21
8,-0.15,0.95,0.55,44.39
8,-0.15,0.95,0.59,50.57
8,-0.18,0.94,0.59,50.49
8,-0.20,1.00,0.12,42.65
8,-0.20,1.04,-0.19,51.24
8,-0.15,1.04,-0.19,47.14
8,-0.13,1.01,-0.08,47.14
8,-0.15,0.97,0.31,44.59
8,-0.15,0.97,0.31,44.45
8,-0.20,0.96,0.37,44.45
8,-0.14,1.01,0.10,44.31
8,-0.14,1.01,-0.09,42.23
8,-0.09,1.02,-0.09,42.61
8,-0.11,0.99,0.03,50.45
8,-0.11,0.98,0.22,41.66
8,-0.14,0.98,0.22,44.56
8,-0.18,0.99,0.23,44.56
8,-0.18,0.99,0.05,46.88
8,-0.19,0.99,0.05,44.87
8,-0.19,1.01,-0.14,44.87
8,-0.21,1.00,-0.10,42.73
8,-0.14,1.00,0.16,42.97
8,-0.13,0.99,0.16,42.97
8,-0.18,0.97,0.31,48.27
8,-0.18,0.99,0.25,46.29
8,-0.09,0.99,0.25,46.71
8,-0.06,1.00,0.19,48.27
8,-0.06,1.00,0.24,44.35
8,-0.10,1.00,0.25,42.80
8,-0.11,0.98,0.25,42.80
8,-0.12,0.99,0.15,41.98
8,-0.12,0.99,0.12,48.64
8,-0.13,1.00,0.12,48.64
8,-0.10,1.00,0.15,41.96
8,-0.10,0.94,0.07,40.72
8,-0.10,1.00,0.07,41.18
8,-0.18,1.02,-0.14,44.31
8,-0.18,0.99,-0.07,49.15
8,-0.15,0.99,-0.07,42.58
8,-0.22,0.97,0.18,42.58
8,-0.23,0.97,0.25,42.08
8,-0.17,0.97,0.31,45.21
8,-0.08,1.00,0.12,45.21
8,-0.04,1.02,0.07,48.15
8,-0.04,1.02,0.23,41.40
8,-0.06,1.00,0.23,40.76
8,-0.12,0.99,0.36,47.03
8,-0.12,0.98,0.32,48.23
8,-0.12,0.98,0.32,45.19
8,-0.13,0.99,0.12,45.19
8,-0.17,1.01,0.07,40.88
8,-0.11,1.01,0.07,40.73
8,-0.15,0.98,0.20,40.73
8,-0.18,0.97,0.31,45.49
8,-0.18,0.97,0.29,41.20
8,-0.11,0.98,0.29,41.20
8,-0.10,1.01,0.20,45.50
8,-0.10,1.00,0.15,41.40
8,-0.11,1.00,0.15,41.80
8,-0.11,0.99,0.16,41.80
9,-0.10,0.99,0.25,43.48
9,-0.12,0.98,0.34,42.69
9,-0.12,0.99,0.32,46.64
9,-0.13,0.99,0.32,46.47
9,-0.11,1.00,0.27,46.47
9,-0.12,0.98,0.22,46.38
9,-0.12,0.98,0.23,43.98
9,-0.15,0.99,0.23,43.98
9,-0.17,0.98,0.23,38.30
9,-0.17,1.00,0.10,40.59
9,-0.12,1.00,0.10,40.65
9,-0.11,1.01,-0.06,44.56
9,-0.11,1.01,-0.03,45.18
9,-0.11,1.01,-0.03,43.59
9,-0.15,0.99,0.20,43.59
9,-0.16,0.98,0.26,45.53
9,-0.16,0.98,0.28,48.18
9,-0.11,0.99,0.15,48.18
9,-0.08,1.00,0.15,45.17
9,-0.08,1.00,0.36,44.49
9,-0.09,0.98,0.36,43.92
9,-0.12,0.99,0.45,44.70
9,-0.12,0.99,0.37,39.12
9,-0.11,0.99,0.37,42.54
9,-0.08,0.99,0.32,42.54
9,-0.09,0.96,0.40,46.23
9,-0.09,0.96,0.40,40.45
9,-0.18,0.87,0.84,40.45
9,0.01,0.73,1.95,45.16
9,0.01,0.73,7.94,39.02
9,-0.57,0.23,7.94,39.02
9,-0.64,-0.84,0.45,43.30
9,-0.64,-0.86,-8.00,45.91
9,-0.36,3.26,-8.00,48.63
9,0.03,1.87,-8.00,48.63
9,0.03,0.46,4.78,39.39
9,-0.33,0.46,4.81,40.51
9,0.05,-0.41,7.94,40.51
9,0.02,-0.32,7.80,48.23
9,0.20,-0.32,-8.00,45.77
9,-0.62,-0.56,-8.00,45.77
9,-0.13,2.14,-8.00,40.62
9,-0.13,2.17,-2.95,41.18
9,0.02,1.17,-2.95,40.83
9,-0.10,-0.08,7.94,43.18
9,-0.10,-0.90,7.94,41.56
9,0.09,-0.90,7.94,44.94
9,-0.07,1.50,-4.38,44.94
9,-0.07,1.84,-8.00,44.70
9,-0.01,1.84,-8.00,41.77
9,-0.23,2.12,-8.00,41.77
9,0.55,-0.40,7.94,44.87
9,0.55,-0.38,7.94,50.13
9,0.49,-0.75,7.94,50.58
9,-0.26,0.50,4.24,41.96
9,-0.26,1.45,-8.00,46.57
9,0.01,1.45,-8.00,47.44
9,0.15,2.68,-8.00,47.44
9,0.13,0.67,-0.63,43.99
9,-0.56,0.67,-0.63,48.65
9,0.08,-0.27,7.94,48.65
9,0.16,0.05,7.94,42.11
9,0.16,0.05,-6.88,44.54
9,-0.65,0.90,-6.88,44.11
9,-0.59,2.76,-8.00,42.54
9,-0.59,2.79,-6.67,42.85
9,0.17,1.16,-6.67,40.31
9,-0.08,-0.01,7.94,40.31
9,-0.08,-0.28,7.94,40.52
9,-0.22,-0.28,7.91,48.75
9,-0.32,0.27,1.04,48.75
9,0.31,2.26,-8.00,40.93
9,0.31,2.26,-8.00,40.49
9,-0.31,1.83,-8.00,40.49
9,-0.07,0.91,3.15,47.29
9,-0.07,0.91,7.94,43.56
9,0.03,-0.27,7.94,43.74
9,-0.12,-0.02,7.85,41.39
9,-0.12,1.08,-8.00,46.70
9,-1.47,1.08,-8.00,49.93
9,-0.04,2.07,-8.00,49.93
9,-0.03,1.24,-3.43,41.20
9,-0.22,1.24,7.94,44.46
9,-0.27,-0.50,7.94,44.46
9,0.15,-0.19,7.94,46.24
9,0.15,-0.21,-2.70,43.15
9,-0.15,0.98,-2.70,43.50
9,-0.52,2.20,-8.00,46.63
9,-0.52,2.00,-8.00,46.46
9,0.05,2.00,-8.00,46.69
9,0.55,-0.56,7.94,46.69
9,0.52,-0.02,7.94,46.39
9,0.02,-0.02,7.90,41.23
9,-0.14,0.33,4.28,41.23
9,-1.05,-0.65,-8.00,44.35
9,-1.05,-0.66,-8.00,42.85
9,-0.03,2.41,-8.00,42.71
9,-0.24,0.57,0.22,45.06
9,-0.24,-0.13,7.94,41.74
9,0.04,-0.13,7.94,44.99
9,0.08,-0.03,7.94,44.99
9,0.07,1.20,-5.92,48.26
9,-0.61,1.20,-5.94,48.69
9,-0.41,2.33,-8.00,48.69
9,0.03,1.32,-5.90,42.50
9,0.03,1.32,7.94,41.90
9,0.27,0.46,7.94,41.49
9,-0.21,-0.25,7.94,35.23
9,-0.21,-0.20,1.40,45.37
9,-0.27,0.55,1.40,45.72
9,0.40,1.26,-8.00,45.72
9,0.40,1.78,-8.00,48.00
9,-0.19,1.78,-8.00,44.12
9,-0.31,1.11,0.25,44.12
9,0.07,-0.20,7.94,43.53
9,0.07,-0.20,6.83,43.60
9,-0.19,0.26,6.83,43.60
9,-1.36,0.65,-7.03,40.44
9,-1.36,0.68,-8.00,47.38
9,-0.08,2.06,-8.00,47.33
9,-0.16,1.41,-2.72,46.55
9,-0.16,-0.05,7.94,44.98
9,-0.33,-0.05,7.94,42.79
9,0.10,0.10,7.94,42.79
9,0.09,0.80,-1.31,41.36
9,-0.22,0.80,-8.00,44.80
9,-0.44,1.97,-8.00,44.80
9,0.02,1.85,-8.00,40.22
9,0.02,1.86,5.58,41.16
9,0.62,0.30,5.58,40.96
9,-0.07,0.13,7.94,42.53
9,-0.07,0.28,4.70,45.20
9,-0.22,0.28,4.70,44.83
9,-1.22,-0.24,-6.71,44.83
9,-1.21,2.12,-8.00,44.51
9,-0.09,2.12,-7.99,46.40
9,-0.11,0.71,-0.05,46.40
9,-0.38,-0.03,7.94,45.84
9,-0.38,-0.03,7.94,43.33
9,-0.07,-0.03,7.94,43.18
9,-0.51,1.36,-4.61,43.96
9,-0.51,2.05,-8.00,49.72
9,-0.33,2.05,-8.00,44.81
9,-0.02,1.31,-5.39,44.81
9,-0.01,-0.11,7.94,44.93
9,0.43,-0.11,7.94,47.47
9,-0.14,-0.17,7.94,47.47
9,-0.25,0.77,1.68,48.02
9,-0.25,0.77,-8.00,47.18
9,-0.06,1.67,-8.00,47.00
9,-0.18,1.81,-8.00,39.95
9,-0.18,1.79,0.66,44.78
9,-0.21,0.91,0.66,41.87
9,0.22,-0.01,7.94,41.87
9,0.22,0.47,6.46,42.62
9,-0.23,0.47,6.48,45.98
9,-1.43,0.17,-5.21,45.98
9,-1.42,1.95,-8.00,40.17
9,-0.11,1.95,-3.20,47.43
9,-0.06,1.35,-3.20,47.43
9,-0.20,-0.10,7.94,43.14
9,-0.20,-0.11,7.94,44.43
9,-0.03,0.33,7.94,44.55
9,-0.24,0.63,-0.20,40.63
9,-0.24,1.99,-8.00,41.06
9,-0.31,1.99,-8.00,48.47
9,-0.03,1.71,-7.30,48.47
9,-0.01,0.62,3.19,48.99
9,0.05,0.62,7.94,39.90
9,0.03,0.35,7.94,39.90
9,-0.19,0.26,4.83,49.55
9,-0.19,0.25,-6.63,40.67
9,-1.72,-0.18,-6.63,41.35
9,-0.14,1.88,-8.00,43.70
9,-0.14,0.98,-0.78,45.65
9,-0.07,0.98,-0.78,40.86
9,-0.11,0.15,7.94,40.86
9,-0.09,0.04,7.94,44.36
9,-0.16,0.04,7.92,46.69
9,-0.44,1.38,-3.39,46.69
9,-0.27,1.82,-8.00,48.46
9,-0.27,1.82,-5.38,41.40
9,-0.05,1.52,-5.38,41.18
9,0.62,0.52,5.97,43.53
9,0.62,0.50,7.94,45.65
9,-0.03,0.00,7.94,47.31
9,-0.26,0.77,1.89,47.31
9,-0.29,1.59,-8.00,36.39
9,-0.17,1.59,-8.00,44.73
9,-0.11,1.84,-8.00,44.73
9,-0.08,0.81,0.77,40.43
9,-0.08,0.81,7.94,50.53
9,-0.16,0.08,7.94,50.53
9,-0.22,0.45,6.13,45.71
9,-0.22,0.48,-4.00,46.89
9,-0.56,0.98,-4.00,44.22
9,-0.13,2.00,-8.00,44.22
9,-0.13,1.20,-3.06,48.75
9,-0.03,1.20,-3.00,49.69
9,0.57,0.54,7.94,49.69
9,0.59,0.09,7.94,46.52
9,-0.23,0.09,0.24,45.02
9,-0.31,0.72,0.24,45.02
9,-0.30,2.01,-8.00,47.81
9,-0.30,2.03,-6.64,42.34
9,-0.04,1.53,-6.64,42.34
9,0.03,0.91,1.76,44.69
9,0.03,0.21,7.94,42.04
9,0.22,0.21,7.94,42.27
9,-0.22,0.47,4.43,42.27
9,-0.21,-0.18,-5.25,42.92
9,-0.96,-0.18,-8.00,43.24
9,-0.11,1.65,-8.00,43.24
9,-0.06,1.09,-1.31,38.84
9,-0.06,1.07,7.94,42.02
9,-0.07,0.01,7.94,41.63
9,-0.16,0.28,7.46,48.68
9,-0.16,1.24,-2.51,45.52
9,-0.46,1.24,-2.51,38.92
9,-0.19,1.59,-8.00,38.92
9,-0.19,1.58,-5.27,47.44
9,-0.06,1.58,-5.27,48.17
9,0.30,0.44,4.48,48.17
9,0.01,0.57,7.94,44.78
9,0.01,0.57,2.36,42.85
9,-0.26,0.75,2.36,42.24
9,0.22,1.27,-7.24,43.02
9,0.22,1.30,-7.84,47.01
9,-0.08,1.80,-7.84,39.34
9,0.05,0.80,0.74,39.34
9,0.05,0.29,7.78,40.26
9,-0.17,0.29,7.79,42.26
10,-0.19,0.73,0.64,45.08
