seconds, accX, accY, accZ, temp
1,0.07,1.29,0.30,39.99
1,0.09,2.05,0.54,38.15
1,0.09,2.05,0.01,38.69
1,-0.05,1.00,0.01,38.69
1,-0.19,-0.02,-0.43,41.08
1,-0.05,0.59,-0.14,36.31
1,-0.05,0.59,0.29,37.89
1,-0.00,1.48,0.26,37.93
1,0.06,2.03,0.45,37.93
1,0.10,0.83,-0.09,39.09
1,-0.12,-0.07,-0.42,36.92
1,-0.18,-0.07,-0.41,37.47
1,0.00,0.70,-0.03,37.47
1,0.01,1.59,0.40,39.65
1,0.13,1.59,0.44,38.00
1,0.07,1.99,0.44,38.00
1,-0.10,0.73,-0.16,40.05
1,-0.10,0.73,-0.42,37.90
1,-0.18,-0.11,-0.42,37.90
1,-0.08,0.80,-0.03,39.11
1,-0.08,0.81,0.41,38.24
1,0.09,1.74,0.41,38.19
1,-0.02,1.87,0.34,37.41
1,-0.02,0.55,-0.26,37.37
1,-0.08,0.55,-0.26,40.02
1,-0.09,-0.04,-0.37,40.02
1,-0.09,0.85,0.09,42.24
1,0.01,0.85,0.09,39.80
1,0.11,1.83,0.49,39.80
1,0.10,1.62,0.28,37.54
1,-0.03,1.62,0.27,37.89
1,-0.09,0.42,-0.29,37.89
1,-0.14,0.23,-0.33,37.91
1,-0.14,0.23,0.10,39.21
1,0.01,0.97,0.10,39.21
1,0.05,1.89,0.45,42.54
1,0.05,1.89,0.19,40.99
1,-0.05,1.45,0.19,40.91
1,-0.11,0.37,-0.35,37.00
1,-0.11,0.32,-0.24,38.77
1,-0.04,0.38,-0.24,38.67
1,0.13,1.19,0.23,37.10
1,0.13,1.95,0.52,37.46
1,0.11,1.95,0.52,38.84
1,-0.07,1.26,0.13,38.84
1,-0.11,0.16,-0.41,38.73
1,-0.17,0.16,-0.39,41.32
1,-0.05,0.50,-0.20,41.32
1,-0.04,1.40,0.27,39.31
1,0.02,1.40,0.47,38.96
1,0.04,2.01,0.47,38.96
1,-0.05,1.04,-0.02,37.13
1,-0.05,1.04,-0.42,39.88
1,-0.17,0.06,-0.42,39.95
1,-0.01,0.54,-0.13,36.82
1,-0.01,0.51,0.34,35.87
1,0.10,1.45,0.34,35.22
1,0.09,2.02,0.49,39.92
1,0.09,0.90,-0.05,39.13
1,-0.07,0.90,-0.05,38.71
1,-0.21,-0.08,-0.43,38.71
1,-0.21,0.65,-0.11,38.03
1,-0.03,0.65,-0.10,37.04
1,0.04,1.59,0.34,37.04
1,0.01,2.01,0.41,39.45
1,0.01,2.01,0.39,40.89
1,-0.09,0.71,-0.17,40.89
1,-0.14,-0.14,-0.41,39.05
1,-0.14,-0.14,0.01,41.13
1,-0.00,0.77,0.01,41.13
1,0.13,1.71,0.46,39.22
1,0.13,1.74,0.39,36.60
1,0.03,1.86,0.39,35.98
1,-0.07,0.59,-0.23,39.90
1,-0.07,-0.00,-0.37,39.04
1,-0.14,-0.00,-0.37,37.97
1,-0.08,0.85,0.03,37.97
1,-0.08,1.82,0.41,39.81
1,0.09,1.82,0.41,38.57
1,-0.02,1.70,0.25,38.57
1,-0.03,0.49,-0.29,39.61
1,-0.09,0.49,-0.26,40.65
1,-0.10,0.14,-0.32,40.65
1,0.06,1.01,0.14,39.95
1,0.06,1.01,0.49,37.27
1,0.12,1.85,0.49,37.27
1,-0.05,1.49,0.22,38.16
1,-0.05,1.48,-0.35,38.09
1,-0.12,0.35,-0.35,37.70
1,-0.08,0.39,-0.27,40.05
1,-0.08,0.39,0.16,38.93
1,0.06,1.20,0.16,38.86
1,0.03,1.93,0.46,38.08
1,0.03,1.30,0.09,39.28
1,-0.06,1.30,0.09,39.16
1,-0.13,0.19,-0.38,39.16
1,-0.13,0.47,-0.17,38.37
1,-0.01,0.47,-0.15,37.24
1,0.13,1.32,0.28,37.24
1,0.16,1.98,0.51,37.56
1,0.10,1.98,0.04,39.10
1,-0.02,1.08,0.04,39.10
1,-0.22,0.04,-0.41,39.30
1,-0.22,0.04,-0.18,37.47
1,-0.02,0.52,-0.18,37.47
1,0.01,1.43,0.28,38.97
1,0.01,1.40,0.47,38.55
1,0.06,2.03,0.47,38.80
1,-0.11,0.95,-0.06,38.80
1,-0.11,-0.06,-0.43,39.32
1,-0.20,-0.06,-0.43,38.18
1,0.02,0.67,-0.07,38.18
1,0.02,1.56,0.39,38.44
1,0.10,1.56,0.40,39.93
1,0.04,2.02,0.46,39.93
1,0.05,0.76,-0.15,38.82
1,-0.07,0.76,-0.16,38.63
1,-0.17,-0.12,-0.41,38.63
1,-0.10,0.76,-0.06,40.65
1,-0.10,0.76,0.36,39.05
1,0.09,1.70,0.36,39.05
1,0.02,1.91,0.35,38.47
1,0.02,1.92,-0.23,38.91
1,-0.08,0.61,-0.23,38.35
1,-0.12,-0.08,-0.39,37.57
1,-0.12,-0.12,0.06,41.23
1,-0.00,0.82,0.06,40.39
1,0.14,1.76,0.46,40.39
1,0.14,1.72,0.31,37.50
1,0.02,1.72,0.31,38.41
1,-0.10,0.51,-0.27,38.41
1,-0.11,0.16,-0.35,39.54
1,-0.11,0.16,-0.35,37.61
1,-0.02,0.96,0.09,37.61
1,0.03,1.90,0.46,40.34
1,0.03,1.90,0.21,37.71
1,-0.05,1.52,0.21,37.71
1,-0.10,0.36,-0.35,38.94
1,-0.10,0.36,-0.27,38.03
1,-0.03,0.35,-0.27,37.70
1,0.08,1.14,0.21,39.26
1,0.08,1.13,0.51,38.56
1,0.09,1.94,0.51,38.59
1,-0.05,1.33,0.13,38.59
1,-0.05,0.20,-0.37,38.37
1,-0.17,0.20,-0.37,39.05
1,-0.08,0.44,-0.23,39.05
1,-0.11,1.29,0.21,39.48
1,0.08,1.29,0.21,40.70
1,0.06,1.97,0.46,40.70
1,0.05,1.14,0.04,37.83
1,-0.08,1.14,0.02,37.91
1,-0.18,0.14,-0.41,37.91
1,0.02,0.51,-0.14,39.94
1,0.02,0.51,0.34,38.68
1,0.11,1.40,0.34,38.68
1,0.08,2.03,0.52,38.89
1,0.08,2.04,-0.04,40.09
1,-0.07,0.92,-0.04,39.90
1,-0.19,-0.06,-0.44,40.69
1,-0.19,-0.01,-0.11,39.55
1,-0.07,0.62,-0.11,38.77
1,0.00,1.57,0.33,38.77
1,0.00,2.01,0.42,37.51
1,0.05,2.01,0.42,37.44
1,-0.08,0.75,-0.13,37.44
1,-0.09,-0.09,-0.41,37.86
1,-0.15,-0.09,-0.38,40.05
1,0.00,0.73,-0.01,40.05
1,0.15,1.64,0.42,39.27
1,0.15,1.64,0.40,40.71
1,0.07,1.91,0.40,40.71
1,-0.10,0.68,-0.19,38.22
1,-0.10,0.68,-0.40,37.58
1,-0.17,-0.07,-0.40,38.04
1,-0.08,0.82,-0.00,38.04
1,-0.08,1.78,0.41,39.23
1,0.07,1.78,0.41,37.86
1,-0.04,1.77,0.30,37.86
1,-0.04,0.52,-0.30,39.02
1,-0.07,0.52,-0.30,40.21
1,-0.09,0.06,-0.35,40.21
1,-0.11,0.94,0.13,39.60
1,0.01,0.94,0.18,39.88
1,0.09,1.86,0.49,39.88
1,-0.04,1.52,0.25,37.84
1,-0.04,1.52,-0.33,39.46
1,-0.10,0.35,-0.33,39.46
1,-0.11,0.32,-0.29,37.99
1,-0.11,0.36,0.13,38.01
1,0.03,1.05,0.13,38.12
1,0.05,1.90,0.46,38.90
1,0.05,1.93,0.14,38.23
1,-0.05,1.37,0.14,38.16
1,-0.12,0.31,-0.36,38.94
1,-0.12,0.44,-0.19,39.43
1,-0.02,0.44,-0.19,38.15
1,0.12,1.26,0.26,38.15
1,0.11,1.95,0.51,38.27
1,0.11,1.95,0.54,38.51
1,-0.06,1.17,0.10,38.51
1,-0.01,0.10,-0.41,36.25
1,-0.20,0.10,-0.17,37.94
1,-0.04,0.56,-0.17,37.94
1,0.01,1.44,0.25,39.68
1,0.01,1.44,0.46,39.39
1,0.06,2.01,0.46,39.85
1,-0.07,0.96,-0.06,40.64
1,-0.07,0.99,-0.42,38.84
1,-0.18,-0.01,-0.42,38.68
1,-0.02,0.61,-0.07,39.46
1,-0.02,1.52,0.38,38.87
1,0.09,1.52,0.38,37.84
1,0.07,2.00,0.47,37.84
1,0.07,0.80,-0.09,40.82
1,-0.08,0.80,-0.07,39.66
1,-0.20,-0.11,-0.45,39.66
1,-0.23,0.71,-0.09,39.13
1,-0.04,0.71,-0.10,38.48
1,0.09,1.66,0.34,38.48
1,0.01,1.98,0.40,37.10
1,0.01,1.98,-0.19,39.17
1,-0.10,0.65,-0.19,39.17
1,-0.12,-0.14,-0.40,39.56
2,-0.07,0.87,0.05,36.78
2,-0.07,1.84,0.43,39.77
2,0.06,1.84,0.42,39.65
2,-0.02,1.60,0.23,39.65
2,-0.04,0.43,-0.32,40.84
2,-0.10,0.43,-0.28,37.78
2,-0.08,0.27,-0.28,37.78
2,0.09,1.06,0.17,38.57
2,0.09,1.06,0.50,37.41
2,0.12,1.89,0.50,36.87
2,-0.06,1.44,0.18,40.79
2,-0.06,1.43,-0.38,41.15
2,-0.15,0.24,-0.38,40.81
2,-0.04,0.43,-0.25,37.68
2,-0.04,1.28,0.19,39.08
2,0.07,1.28,0.19,39.14
2,0.03,1.99,0.47,39.14
2,0.03,1.19,0.07,40.58
2,-0.06,1.19,0.09,37.75
2,-0.15,0.13,-0.41,37.75
2,-0.13,0.49,-0.16,37.78
2,-0.00,0.49,-0.17,40.02
2,0.11,1.38,0.33,40.02
2,0.09,2.02,0.53,39.38
2,0.09,2.02,-0.02,39.51
2,-0.03,0.96,-0.02,39.51
2,-0.22,-0.02,-0.42,36.09
2,-0.22,-0.06,-0.14,38.87
2,-0.04,0.56,-0.14,38.75
2,0.01,1.49,0.30,39.53
2,0.01,2.04,0.44,39.71
2,0.05,2.04,0.44,37.07
2,-0.10,0.82,-0.10,37.07
2,-0.10,-0.10,-0.43,38.26
2,-0.17,-0.10,-0.40,39.01
2,0.02,0.73,-0.02,39.01
2,0.06,1.63,0.41,40.06
2,0.12,1.63,0.38,42.49
2,0.05,2.00,0.44,42.49
2,-0.09,0.70,-0.19,43.71
2,-0.09,0.70,-0.40,38.70
2,-0.15,-0.09,-0.40,38.70
2,-0.11,0.80,-0.02,39.99
2,-0.11,0.76,0.39,38.14
2,0.09,1.76,0.39,38.03
2,0.00,1.79,0.30,38.81
2,0.00,1.80,-0.26,39.71
2,-0.08,0.55,-0.26,37.68
2,-0.11,0.00,-0.36,37.68
2,-0.11,0.89,0.11,40.06
2,0.02,0.89,0.11,40.09
2,0.13,1.81,0.49,40.09
2,0.17,1.60,0.27,38.80
2,-0.02,1.60,0.27,36.72
2,-0.10,0.44,-0.29,36.72
2,-0.09,0.25,-0.32,37.91
2,-0.09,0.25,0.13,38.70
2,0.04,1.07,0.13,38.70
2,0.02,1.93,0.46,40.30
2,0.02,1.90,0.16,39.94
2,-0.06,1.40,0.16,40.47
2,-0.11,0.30,-0.37,38.90
2,-0.11,0.28,-0.22,38.67
2,-0.03,0.40,-0.22,38.92
2,0.12,1.25,0.25,36.57
2,0.12,1.97,0.51,40.14
2,0.09,1.97,0.51,36.76
2,-0.03,1.21,0.09,36.76
2,-0.00,0.12,-0.39,38.67
2,-0.19,0.12,-0.40,40.05
2,-0.07,0.48,-0.21,40.05
2,-0.08,1.37,0.26,41.05
2,0.04,1.37,0.46,39.11
2,0.06,1.99,0.46,39.11
2,-0.09,1.05,-0.01,38.76
2,-0.09,1.05,-0.42,40.29
2,-0.19,0.05,-0.42,40.63
2,0.03,0.58,-0.12,37.50
2,0.03,0.60,0.36,37.53
2,0.11,1.47,0.36,37.93
2,0.06,2.02,0.50,38.72
2,0.06,0.86,-0.08,40.19
2,-0.09,0.86,-0.08,37.66
2,-0.20,-0.11,-0.44,37.66
2,-0.20,0.71,-0.07,36.73
2,-0.06,0.71,-0.10,36.96
2,0.04,1.65,0.34,36.96
2,0.03,1.96,0.39,36.86
2,0.03,1.96,0.43,39.26
2,-0.07,0.67,-0.19,39.26
2,-0.15,-0.14,-0.40,38.17
2,-0.15,-0.14,0.04,39.33
2,-0.02,0.78,0.04,39.33
2,0.13,1.71,0.44,38.75
2,0.13,1.70,0.35,39.59
2,0.06,1.83,0.35,39.62
2,-0.08,0.58,-0.23,39.62
2,-0.08,0.02,-0.38,38.88
2,-0.14,0.02,-0.38,38.97
2,-0.07,0.88,0.04,38.97
2,-0.07,1.82,0.43,37.87
2,0.06,1.82,0.43,40.22
2,-0.05,1.68,0.26,40.22
2,-0.02,0.44,-0.31,39.66
2,-0.08,0.44,-0.31,37.23
2,-0.08,0.20,-0.31,37.23
2,0.05,1.04,0.16,37.71
2,0.05,1.04,0.49,38.28
2,0.09,1.89,0.49,38.28
2,-0.05,1.44,0.20,38.06
2,-0.05,1.46,-0.37,37.92
2,-0.13,0.27,-0.37,37.93
2,-0.11,0.41,-0.25,38.71
2,-0.11,0.42,0.18,39.68
2,0.08,1.17,0.18,42.05
2,0.05,1.93,0.46,42.05
2,0.05,1.26,0.08,38.58
2,-0.05,1.26,0.08,38.86
2,-0.15,0.19,-0.39,38.86
2,-0.13,0.46,-0.18,38.98
2,-0.00,0.46,-0.14,40.05
2,0.13,1.34,0.30,40.05
2,0.16,2.01,0.53,37.66
2,0.10,2.01,0.02,37.97
2,-0.05,1.05,0.02,37.97
2,-0.21,-0.01,-0.44,38.11
2,-0.21,-0.01,-0.15,41.37
2,-0.03,0.60,-0.15,41.21
2,0.00,1.51,0.30,41.99
2,0.00,1.54,0.46,38.27
2,0.05,2.04,0.46,38.11
2,-0.09,0.85,-0.08,37.33
2,-0.09,-0.08,-0.42,36.80
2,-0.18,-0.08,-0.42,40.07
2,-0.02,0.67,-0.05,40.07
2,-0.02,1.58,0.39,39.13
2,0.12,1.58,0.38,39.62
2,0.07,2.01,0.44,39.62
2,0.09,0.73,-0.16,41.14
2,-0.09,0.73,-0.17,37.11
2,-0.20,-0.09,-0.42,37.11
2,-0.07,0.77,-0.03,36.66
2,-0.07,0.77,0.40,36.97
2,0.11,1.69,0.40,36.97
2,-0.00,1.89,0.35,36.58
2,-0.00,1.88,-0.25,39.32
2,-0.09,0.57,-0.25,39.52
2,-0.10,-0.05,-0.38,38.73
2,-0.10,0.84,0.08,38.20
2,0.00,0.84,0.08,39.28
2,0.13,1.81,0.48,39.28
2,0.13,1.66,0.30,39.21
2,-0.02,1.66,0.30,38.80
2,-0.08,0.43,-0.29,38.80
2,-0.11,0.24,-0.32,39.60
2,-0.11,0.24,-0.34,37.50
2,-0.00,0.99,0.10,37.50
2,0.04,1.90,0.44,39.78
2,0.04,1.90,0.18,40.04
2,-0.02,1.46,0.18,40.04
2,-0.11,0.37,-0.34,37.87
2,-0.11,0.32,-0.24,38.88
2,-0.05,0.39,-0.24,38.83
2,0.12,1.17,0.22,38.83
2,0.12,1.19,0.51,37.45
2,0.12,1.94,0.51,38.36
2,-0.05,1.29,0.12,38.36
2,-0.05,0.19,-0.40,39.12
2,-0.18,0.19,-0.40,39.34
2,-0.03,0.49,-0.23,39.34
2,-0.02,1.39,0.26,36.62
2,0.05,1.39,0.28,41.10
2,0.03,2.00,0.47,41.10
2,-0.08,1.04,-0.01,39.12
2,-0.08,1.04,-0.42,37.54
2,-0.16,0.06,-0.42,37.54
2,0.01,0.55,-0.13,36.78
2,0.01,0.55,0.35,38.06
2,0.08,1.46,0.35,37.99
2,0.08,2.02,0.52,38.77
2,0.08,2.05,-0.07,38.75
2,-0.05,0.87,-0.07,38.34
2,-0.21,-0.07,-0.42,42.26
2,-0.21,0.61,-0.12,38.26
2,-0.05,0.61,-0.12,38.72
2,0.06,1.56,0.34,38.72
2,0.04,2.01,0.41,39.11
2,0.04,2.01,0.42,39.20
2,-0.11,0.73,-0.15,39.20
2,-0.09,-0.10,-0.42,38.17
2,-0.15,-0.10,0.01,39.01
2,0.02,0.78,0.01,39.01
2,0.14,1.70,0.44,37.48
2,0.14,1.70,0.40,37.78
2,0.02,1.89,0.40,37.78
2,-0.09,0.60,-0.23,39.57
2,-0.09,0.61,-0.38,38.75
2,-0.14,-0.02,-0.38,39.06
2,-0.10,0.87,0.03,38.27
2,-0.10,1.81,0.42,38.97
2,0.09,1.81,0.42,39.62
2,-0.01,1.70,0.25,39.62
2,-0.01,0.47,-0.30,40.07
2,-0.08,0.47,-0.27,39.09
2,-0.12,0.13,-0.33,39.09
2,-0.08,0.99,0.13,41.47
2,0.05,0.99,0.16,38.07
2,0.12,1.85,0.47,38.07
2,-0.02,1.49,0.22,38.90
2,-0.02,1.49,-0.33,38.20
2,-0.12,0.36,-0.33,38.20
2,-0.07,0.35,-0.30,39.24
2,-0.07,0.35,0.17,38.46
2,0.08,1.16,0.17,38.84
2,0.03,1.93,0.47,38.06
2,0.03,1.93,0.11,39.10
2,-0.09,1.31,0.11,40.16
2,-0.12,0.21,-0.39,40.16
2,-0.12,0.48,-0.17,38.23
2,0.01,0.48,-0.17,38.16
2,0.13,1.35,0.28,38.16
2,0.14,1.99,0.53,40.33
2,0.08,1.99,0.54,38.08
2,-0.04,1.09,0.04,38.08
2,-0.21,0.02,-0.41,37.71
2,-0.21,0.02,-0.18,38.07
2,-0.06,0.53,-0.18,38.07
2,0.02,1.44,0.29,36.29
2,0.02,1.45,0.46,38.44
2,0.07,2.01,0.46,38.77
2,-0.10,0.95,-0.06,37.20
2,-0.10,0.96,-0.43,38.54
2,-0.20,-0.04,-0.43,38.34
3,-0.09,0.78,-0.04,39.40
3,0.06,1.70,0.39,39.40
3,0.01,1.92,0.36,36.12
3,0.01,1.92,-0.24,37.78
3,-0.07,0.57,-0.24,37.78
3,-0.11,-0.09,-0.38,39.27
3,-0.11,-0.12,0.07,39.37
3,-0.00,0.82,0.07,39.57
3,0.14,1.76,0.47,39.57
3,0.14,1.78,0.31,39.43
3,0.02,1.72,0.31,39.40
3,-0.10,0.49,-0.26,38.62
3,-0.10,0.17,-0.36,37.68
3,-0.13,0.17,-0.36,36.82
3,-0.03,0.95,0.07,36.82
3,-0.02,1.88,0.45,38.09
3,0.04,1.88,0.48,37.56
3,-0.06,1.55,0.23,37.56
3,-0.03,0.37,-0.35,39.86
3,-0.09,0.37,-0.27,39.99
3,-0.03,0.34,-0.27,39.99
3,0.10,1.13,0.21,39.20
3,0.10,1.13,0.51,37.82
3,0.09,1.95,0.51,38.20
3,-0.08,1.34,0.14,38.20
3,-0.08,1.37,-0.39,38.48
3,-0.15,0.18,-0.39,38.33
3,-0.09,0.47,-0.23,38.33
3,-0.09,1.31,0.21,38.89
3,0.08,1.31,0.21,39.83
3,0.07,1.98,0.46,39.83
3,0.07,1.12,0.02,41.31
3,-0.05,1.12,0.03,39.24
3,-0.18,0.12,-0.41,39.24
3,-0.13,0.49,-0.15,38.80
3,-0.01,0.49,-0.18,39.26
3,0.11,1.41,0.32,39.26
3,0.10,2.03,0.53,36.81
3,0.10,2.03,-0.04,39.48
3,-0.07,0.93,-0.04,39.48
3,-0.21,-0.06,-0.45,40.55
3,-0.21,-0.06,-0.12,40.22
3,-0.04,0.62,-0.12,40.02
3,-0.00,1.61,0.33,39.23
3,-0.00,2.04,0.43,36.77
3,0.03,2.04,0.43,37.12
3,-0.08,0.72,-0.14,37.12
3,-0.08,-0.14,-0.43,36.46
3,-0.15,-0.14,-0.43,37.91
3,-0.01,0.75,-0.01,37.91
3,-0.06,1.68,0.43,39.48
3,0.13,1.68,0.41,39.16
3,0.06,1.93,0.41,39.16
3,-0.09,0.65,-0.19,40.11
3,-0.09,0.65,-0.41,40.61
3,-0.19,-0.04,-0.41,40.61
3,-0.07,0.81,-0.01,38.45
3,-0.07,0.84,0.40,37.73
3,0.10,1.77,0.40,38.18
3,-0.02,1.77,0.29,38.97
3,-0.02,1.77,-0.29,38.35
3,-0.09,0.52,-0.29,39.29
3,-0.11,0.07,-0.35,39.29
3,-0.11,0.95,0.11,39.30
3,0.06,0.95,0.11,40.63
3,0.10,1.86,0.50,40.63
3,0.06,1.54,0.25,37.71
3,-0.06,1.54,0.28,40.34
3,-0.09,0.34,-0.34,40.34
3,-0.09,0.32,-0.29,38.77
3,-0.09,0.32,0.15,39.38
3,0.01,1.09,0.15,39.38
3,0.04,1.93,0.45,38.34
3,0.04,1.92,0.13,41.21
3,-0.04,1.36,0.13,41.16
3,-0.13,0.26,-0.37,40.38
3,-0.13,0.30,-0.21,39.04
3,-0.03,0.43,-0.21,38.39
3,0.13,1.27,0.26,37.60
3,0.13,1.96,0.52,39.17
3,0.12,1.96,0.52,38.16
3,-0.03,1.18,0.09,38.16
3,-0.02,0.10,-0.41,37.89
3,-0.21,0.10,-0.39,37.81
3,-0.02,0.52,-0.20,37.81
3,-0.01,1.46,0.26,39.09
3,0.06,1.46,0.46,41.12
3,0.03,2.02,0.46,41.12
3,-0.09,0.96,-0.06,40.34
3,-0.09,0.96,-0.44,38.59
3,-0.19,-0.03,-0.44,39.05
3,0.01,0.63,-0.09,37.48
3,0.01,0.67,0.39,41.28
3,0.10,1.54,0.39,41.10
3,0.06,2.02,0.47,37.97
3,0.06,0.77,-0.12,39.88
3,-0.07,0.77,-0.12,39.09
3,-0.20,-0.14,-0.44,39.09
3,-0.25,0.70,-0.07,39.14
3,-0.06,0.70,-0.13,41.68
3,0.09,1.66,0.37,41.68
3,0.08,1.96,0.38,39.33
3,0.02,1.96,0.43,38.94
3,-0.11,0.64,-0.19,38.94
3,-0.14,-0.12,-0.39,39.13
3,-0.14,-0.12,0.04,42.18
3,0.02,0.81,0.04,42.18
3,0.14,1.75,0.47,39.95
3,0.14,1.79,0.36,37.33
3,0.03,1.79,0.36,36.77
3,-0.09,0.52,-0.26,39.12
3,-0.09,0.13,-0.35,38.76
3,-0.12,0.13,-0.35,38.86
3,-0.09,0.91,0.07,38.86
3,-0.09,1.88,0.44,38.65
3,0.06,1.88,0.44,38.25
3,-0.02,1.60,0.23,38.25
3,-0.02,0.38,-0.34,38.95
3,-0.09,0.38,-0.34,38.43
3,-0.07,0.31,-0.27,38.43
3,0.06,1.04,0.17,39.69
3,0.06,1.04,0.49,38.09
3,0.11,1.89,0.49,38.09
3,-0.05,1.40,0.17,37.89
3,-0.05,1.42,-0.37,36.71
3,-0.16,0.23,-0.37,36.22
3,-0.05,0.42,-0.26,39.36
3,-0.05,0.39,0.19,37.51
3,0.10,1.26,0.19,36.84
3,0.02,1.97,0.48,38.40
3,0.02,1.21,0.07,40.39
3,-0.08,1.21,0.07,40.62
3,-0.17,0.12,-0.41,40.62
3,-0.17,0.50,-0.16,38.35
3,0.02,0.50,-0.17,36.73
3,0.10,1.37,0.33,36.73
3,0.07,2.04,0.53,37.83
3,0.07,2.04,-0.02,37.00
3,-0.05,0.93,-0.02,37.00
3,-0.20,-0.06,-0.41,38.67
3,-0.20,-0.06,-0.13,40.56
3,-0.07,0.59,-0.13,40.03
3,0.00,1.50,0.29,39.25
3,0.00,1.47,0.44,37.40
3,0.07,2.03,0.44,37.28
3,-0.10,0.81,-0.10,39.63
3,-0.10,-0.08,-0.43,38.54
3,-0.18,-0.08,-0.43,38.23
3,0.02,0.74,-0.03,38.23
3,0.02,1.62,0.41,38.08
3,0.12,1.62,0.38,38.93
3,0.07,1.97,0.44,38.93
3,0.08,0.69,-0.18,37.66
3,-0.11,0.69,-0.18,39.49
3,-0.15,-0.08,-0.43,39.49
3,-0.09,0.83,-0.02,40.06
3,-0.09,0.83,0.41,39.11
3,0.09,1.78,0.41,39.11
3,-0.01,1.81,0.31,38.25
3,-0.01,1.76,-0.28,37.55
3,-0.07,0.51,-0.28,37.68
3,-0.11,0.02,-0.36,39.25
3,-0.11,0.89,0.11,39.17
3,0.02,0.89,0.11,37.65
3,0.12,1.84,0.49,37.65
3,0.12,1.59,0.26,41.54
3,-0.03,1.59,0.26,41.75
3,-0.11,0.39,-0.30,41.75
3,-0.11,0.27,-0.31,39.68
3,-0.11,0.27,-0.26,36.62
3,0.04,1.03,0.12,36.62
3,0.04,1.92,0.46,38.47
3,0.04,1.92,0.16,39.31
3,-0.06,1.42,0.16,39.31
3,-0.11,0.31,-0.37,41.12
3,-0.11,0.37,-0.22,37.85
3,-0.02,0.43,-0.22,37.74
3,0.09,1.23,0.26,38.52
3,0.09,1.24,0.52,38.11
3,0.11,1.99,0.52,38.04
3,-0.06,1.21,0.10,38.04
3,-0.06,0.10,-0.41,40.09
3,-0.18,0.10,-0.41,37.55
3,-0.07,0.50,-0.20,37.55
3,-0.10,1.40,0.23,38.14
3,0.03,1.40,0.20,37.32
3,0.06,1.99,0.45,37.32
3,-0.05,1.02,-0.03,38.75
3,-0.05,1.02,-0.43,38.91
3,-0.19,0.04,-0.43,38.91
3,0.00,0.57,-0.11,39.28
3,0.00,0.57,0.36,38.83
3,0.11,1.46,0.36,38.38
3,0.10,2.01,0.51,37.60
3,0.10,2.04,-0.06,37.15
3,-0.11,0.85,-0.06,37.18
3,-0.21,-0.11,-0.44,37.97
3,-0.21,0.71,-0.08,40.30
3,-0.04,0.71,-0.08,40.11
3,0.02,1.67,0.35,40.11
3,0.01,1.99,0.41,36.69
3,0.01,1.99,0.43,38.70
3,-0.07,0.64,-0.20,38.70
3,-0.07,-0.15,-0.40,38.55
3,-0.13,-0.15,0.03,38.46
3,-0.01,0.80,0.03,38.46
3,0.13,1.73,0.46,39.35
3,0.13,1.73,0.36,38.62
3,0.04,1.81,0.36,38.62
3,-0.08,0.55,-0.24,39.40
3,-0.08,0.55,-0.37,37.04
3,-0.16,0.05,-0.37,36.93
3,-0.06,0.88,0.03,40.84
3,-0.06,1.83,0.42,38.78
3,0.08,1.83,0.42,38.35
3,-0.03,1.68,0.25,38.35
3,-0.03,0.47,-0.31,39.27
3,-0.09,0.47,-0.31,38.78
3,-0.08,0.20,-0.31,38.78
3,-0.10,1.06,0.16,39.42
3,0.09,1.06,0.13,38.69
3,0.11,1.89,0.50,38.69
3,-0.06,1.47,0.20,38.64
3,-0.06,1.47,-0.37,37.75
3,-0.12,0.27,-0.37,37.75
3,-0.08,0.42,-0.25,38.30
3,-0.08,0.42,0.18,39.03
3,0.07,1.23,0.18,38.56
3,0.05,1.94,0.46,38.56
3,0.05,1.93,0.07,39.11
3,-0.05,1.25,0.07,39.45
3,-0.15,0.15,-0.39,39.45
3,-0.15,0.45,-0.17,39.49
4,0.02,1.51,0.30,39.91
4,0.02,1.51,0.48,37.72
4,0.04,2.04,0.48,37.88
4,-0.10,0.87,-0.09,37.88
4,-0.10,0.84,-0.44,37.86
4,-0.18,-0.10,-0.44,38.31
4,0.00,0.69,-0.05,37.53
4,0.00,1.60,0.41,38.91
4,0.10,1.60,0.41,38.53
4,0.05,2.02,0.45,38.53
4,0.04,0.70,-0.18,40.12
4,-0.08,0.70,-0.17,38.66
4,-0.20,-0.10,-0.42,38.66
4,-0.19,0.77,-0.04,38.04
4,-0.07,0.77,0.39,41.40
4,0.08,1.72,0.39,41.40
4,0.02,1.88,0.35,39.37
4,0.02,1.88,-0.24,39.60
4,-0.10,0.56,-0.24,39.60
4,-0.11,-0.06,-0.39,38.64
4,-0.11,-0.03,0.09,38.68
4,0.02,0.85,0.09,38.82
4,0.15,1.79,0.49,40.39
4,0.15,1.69,0.31,41.91
4,-0.01,1.69,0.31,39.94
4,-0.09,0.45,-0.31,39.94
4,-0.09,0.23,-0.33,37.59
4,-0.09,0.23,-0.33,39.12
4,-0.04,1.00,0.11,39.12
4,-0.04,1.93,0.45,38.08
4,0.03,1.93,0.44,37.69
4,-0.03,1.46,0.19,37.69
4,-0.10,0.33,-0.36,38.35
4,-0.10,0.33,-0.24,40.84
4,-0.05,0.40,-0.24,40.84
4,0.10,1.18,0.24,39.08
4,0.10,1.15,0.51,40.80
4,0.10,1.96,0.51,40.82
4,-0.05,1.28,0.11,39.25
4,-0.05,1.30,-0.40,41.29
4,-0.19,0.17,-0.40,41.10
4,-0.05,0.47,-0.23,41.10
4,-0.05,1.37,0.23,39.27
4,0.10,1.37,0.23,38.89
4,0.05,2.00,0.48,38.89
4,0.04,1.07,0.00,37.93
4,-0.09,1.07,0.01,40.23
4,-0.18,0.07,-0.43,40.23
4,0.02,0.53,-0.13,38.61
4,0.02,0.53,0.36,39.88
4,0.11,1.49,0.36,39.88
4,0.07,2.03,0.53,37.15
4,0.07,2.04,-0.07,36.86
4,-0.06,0.85,-0.07,36.95
4,-0.21,-0.10,-0.43,36.16
4,-0.21,-0.07,-0.11,39.32
4,-0.07,0.61,-0.11,38.35
4,0.03,1.60,0.31,38.35
4,0.03,2.01,0.40,39.42
4,0.05,2.01,0.40,37.87
4,-0.10,0.72,-0.16,37.87
4,-0.09,-0.12,-0.42,37.93
4,-0.16,-0.12,-0.43,36.86
4,0.02,0.78,0.01,36.86
4,0.02,1.68,0.44,38.56
4,0.15,1.68,0.39,37.28
4,0.06,1.90,0.39,37.28
4,-0.11,0.63,-0.21,40.09
4,-0.11,0.63,-0.40,39.12
4,-0.15,-0.02,-0.40,39.34
4,-0.08,0.89,0.03,37.78
4,-0.08,0.91,0.43,39.76
4,0.07,1.85,0.43,39.25
4,-0.04,1.71,0.27,39.25
4,-0.04,0.44,-0.31,36.94
4,-0.07,0.44,-0.31,38.82
4,-0.09,0.12,-0.32,38.82
4,-0.11,0.97,0.17,40.31
4,0.02,0.97,0.13,40.10
4,0.11,1.89,0.51,40.10
4,0.11,1.49,0.22,39.34
4,-0.02,1.49,0.21,38.53
4,-0.12,0.31,-0.35,38.53
4,-0.10,0.33,-0.29,35.68
4,-0.10,0.33,0.15,37.07
4,0.05,1.09,0.15,37.07
4,0.03,1.93,0.47,37.15
4,0.03,1.89,0.11,37.74
4,-0.07,1.33,0.11,38.09
4,-0.13,0.25,-0.39,38.87
4,-0.13,0.47,-0.18,41.43
4,0.01,0.47,-0.18,40.82
4,0.12,1.31,0.29,40.82
4,0.12,2.00,0.53,37.77
4,0.09,2.00,0.56,37.27
4,-0.06,1.11,0.06,37.27
4,-0.01,0.02,-0.43,38.13
4,-0.20,0.02,-0.42,36.59
4,-0.07,0.57,-0.17,36.59
4,0.00,1.47,0.28,36.66
4,0.00,1.47,0.46,40.05
4,0.07,2.00,0.46,40.05
4,-0.08,0.92,-0.08,38.01
4,-0.08,0.90,-0.43,38.60
4,-0.19,-0.04,-0.43,38.85
4,-0.01,0.65,-0.06,37.28
4,-0.01,0.69,0.39,37.71
4,0.12,1.56,0.39,37.85
4,0.08,2.01,0.47,37.85
4,0.08,0.75,-0.14,37.54
4,-0.10,0.75,-0.14,38.51
4,-0.18,-0.15,-0.45,38.51
4,-0.18,0.79,-0.04,38.40
4,-0.05,0.79,-0.03,37.99
4,0.06,1.73,0.40,37.99
4,-0.00,1.95,0.38,38.18
4,-0.00,1.95,-0.23,37.00
4,-0.08,0.57,-0.23,37.00
4,-0.10,-0.13,-0.38,36.92
4,-0.10,-0.17,0.06,39.26
4,0.00,0.83,0.06,39.65
4,0.13,1.79,0.48,38.87
4,0.13,1.80,0.32,39.38
4,0.01,1.74,0.32,39.65
4,-0.07,0.46,-0.28,39.65
4,-0.07,0.17,-0.34,38.17
4,-0.15,0.17,-0.34,37.66
4,-0.05,0.92,0.07,37.66
4,-0.06,1.88,0.44,38.71
4,0.07,1.88,0.48,39.16
4,-0.03,1.57,0.23,39.16
4,-0.05,0.38,-0.35,38.50
4,-0.11,0.38,-0.29,40.59
4,-0.04,0.34,-0.29,40.59
4,0.10,1.12,0.20,41.26
4,0.10,1.12,0.51,39.13
4,0.11,1.95,0.51,39.11
4,-0.07,1.37,0.16,39.11
4,-0.07,1.36,-0.41,38.64
4,-0.15,0.17,-0.41,39.03
4,-0.07,0.48,-0.23,37.47
4,-0.07,1.31,0.21,37.73
4,0.07,1.31,0.21,39.50
4,0.04,1.99,0.47,39.50
4,0.01,1.12,0.04,38.90
4,-0.06,1.12,0.03,40.47
4,-0.16,0.10,-0.41,40.47
4,-0.14,0.49,-0.14,40.64
4,-0.01,0.49,-0.17,37.71
4,0.10,1.41,0.33,37.71
4,0.09,2.02,0.52,39.38
4,0.09,2.02,-0.04,38.36
4,-0.06,0.91,-0.04,38.36
4,-0.23,-0.05,-0.43,36.73
4,-0.23,-0.00,-0.12,37.71
4,-0.03,0.62,-0.12,38.06
4,0.01,1.58,0.32,39.63
4,0.01,2.04,0.44,41.14
4,0.03,2.04,0.44,40.68
4,-0.09,0.74,-0.14,40.68
4,-0.09,-0.12,-0.42,38.38
4,-0.15,-0.12,-0.38,38.26
4,0.00,0.75,-0.01,38.26
4,0.00,1.67,0.43,37.78
4,0.13,1.67,0.43,37.42
4,0.03,1.95,0.43,37.42
4,-0.08,0.63,-0.22,38.34
4,-0.08,0.63,-0.40,39.69
4,-0.18,-0.04,-0.40,39.69
4,-0.07,0.82,-0.02,38.80
4,-0.07,0.81,0.40,38.01
4,0.11,1.75,0.40,38.11
4,0.00,1.78,0.29,39.68
4,0.00,1.76,-0.27,38.08
4,-0.10,0.51,-0.27,38.33
4,-0.12,0.06,-0.35,38.33
4,-0.12,0.92,0.11,38.76
4,0.06,0.92,0.11,39.18
4,0.11,1.83,0.49,39.18
4,0.08,1.57,0.25,39.59
4,-0.04,1.57,0.29,38.28
4,-0.09,0.37,-0.34,38.28
4,-0.06,0.31,-0.30,40.67
4,-0.06,0.31,0.15,39.30
4,0.02,1.11,0.15,39.30
4,0.02,1.95,0.47,41.25
4,0.02,1.95,0.13,39.55
4,-0.04,1.35,0.13,39.30
4,-0.12,0.24,-0.38,38.52
4,-0.12,0.23,-0.20,38.82
4,-0.03,0.42,-0.20,38.53
4,0.12,1.29,0.27,40.88
4,0.12,1.97,0.51,38.49
4,0.11,1.97,0.51,38.53
4,-0.03,1.18,0.09,38.53
4,-0.03,0.11,-0.40,40.28
4,-0.21,0.11,-0.40,38.20
4,-0.05,0.49,-0.21,38.20
4,-0.06,1.42,0.24,37.79
4,0.07,1.42,0.47,39.41
4,0.04,2.01,0.47,39.41
4,-0.10,1.00,-0.03,40.33
4,-0.10,1.00,-0.44,41.56
4,-0.18,-0.02,-0.44,41.56
4,0.04,0.62,-0.10,39.57
4,0.04,0.60,0.38,39.20
4,0.11,1.54,0.38,39.82
4,0.05,2.04,0.49,35.91
4,0.05,0.78,-0.10,36.93
4,-0.09,0.78,-0.10,38.07
4,-0.20,-0.14,-0.44,38.07
4,-0.20,0.71,-0.07,38.83
4,-0.07,0.71,-0.08,38.07
4,0.05,1.67,0.36,38.07
4,0.04,1.96,0.38,39.29
4,0.04,1.96,0.43,38.14
4,-0.09,0.64,-0.19,38.14
4,-0.14,-0.13,-0.39,38.45
4,-0.14,-0.13,0.04,38.75
4,0.01,0.81,0.04,38.75
4,0.14,1.74,0.45,37.25
4,0.14,1.74,0.35,37.32
4,0.06,1.80,0.35,37.50
4,-0.09,0.55,-0.25,39.06
4,-0.09,0.53,-0.37,41.05
4,-0.13,0.09,-0.37,37.61
4,-0.07,0.92,0.06,37.61
4,-0.07,1.87,0.45,38.22
4,0.04,1.87,0.45,37.55
4,-0.04,1.63,0.23,37.55
4,-0.02,0.38,-0.34,38.62
4,-0.08,0.38,-0.35,39.02
4,-0.05,0.29,-0.29,39.02
5,0.09,1.21,0.19,38.02
5,0.06,1.95,0.47,38.80
5,0.06,1.23,0.08,38.13
5,-0.07,1.23,0.08,38.84
5,-0.16,0.14,-0.42,38.84
5,-0.16,0.47,-0.16,38.87
5,0.03,0.47,-0.16,39.78
5,0.12,1.36,0.34,39.78
5,0.09,2.05,0.53,37.87
5,0.09,2.05,0.56,35.29
5,-0.06,0.99,-0.01,35.29
5,-0.20,-0.06,-0.44,37.47
5,-0.20,-0.06,-0.13,39.36
5,-0.08,0.60,-0.13,39.36
5,0.00,1.53,0.31,41.03
5,0.00,1.54,0.45,39.92
5,0.06,2.04,0.45,40.01
5,-0.10,0.82,-0.11,39.23
5,-0.10,0.86,-0.43,40.95
5,-0.18,-0.08,-0.43,38.81
5,0.00,0.72,-0.03,38.81
5,0.00,1.60,0.41,38.56
5,0.13,1.60,0.41,38.76
5,0.07,2.00,0.43,38.76
5,0.08,0.70,-0.17,39.72
5,-0.11,0.70,-0.18,39.06
5,-0.18,-0.10,-0.43,39.06
5,-0.06,0.82,-0.01,41.08
5,-0.06,0.82,0.40,38.68
5,0.09,1.78,0.40,38.68
5,-0.02,1.87,0.34,38.45
5,-0.02,1.82,-0.26,38.25
5,-0.07,0.51,-0.26,37.80
5,-0.09,-0.02,-0.37,37.01
5,-0.09,-0.01,0.10,39.59
5,0.01,0.86,0.10,39.62
5,0.13,1.85,0.50,38.84
5,0.13,1.62,0.28,40.71
5,-0.03,1.62,0.28,39.05
5,-0.09,0.39,-0.32,39.05
5,-0.12,0.25,-0.33,40.34
5,-0.12,0.25,-0.33,35.84
5,-0.02,0.98,0.11,35.84
5,-0.02,1.90,0.45,38.58
5,0.05,1.90,0.17,37.27
5,-0.04,1.46,0.17,37.27
5,-0.12,0.34,-0.35,37.65
5,-0.12,0.34,-0.23,38.90
5,-0.05,0.39,-0.23,38.90
5,0.11,1.21,0.23,39.97
5,0.11,1.23,0.52,38.21
5,0.11,1.98,0.52,37.77
5,-0.07,1.26,0.11,38.55
5,-0.07,0.11,-0.42,40.87
5,-0.18,0.11,-0.42,37.68
5,-0.06,0.49,-0.21,37.68
5,-0.06,1.43,0.25,37.35
5,0.07,1.43,0.28,38.03
5,0.05,2.01,0.47,38.03
5,0.01,1.02,-0.03,39.97
5,-0.06,1.02,-0.05,37.94
5,-0.17,0.02,-0.43,37.94
5,0.00,0.53,-0.12,38.83
5,0.00,0.53,0.36,38.98
5,0.10,1.49,0.36,38.98
5,0.09,2.01,0.51,39.31
5,0.09,2.03,-0.07,39.13
5,-0.08,0.84,-0.07,39.51
5,-0.23,-0.09,-0.44,37.95
5,-0.23,0.66,-0.10,38.72
5,-0.02,0.66,-0.10,37.97
5,0.02,1.65,0.34,37.97
5,0.02,2.01,0.42,40.48
5,0.02,2.01,0.39,38.46
5,-0.10,0.68,-0.17,38.46
5,-0.08,-0.14,-0.41,37.20
5,-0.14,-0.14,-0.40,37.52
5,-0.00,0.80,0.04,37.52
5,0.13,1.74,0.47,38.39
5,0.13,1.74,0.39,39.20
5,0.04,1.85,0.39,39.20
5,-0.08,0.56,-0.26,40.27
5,-0.08,0.53,-0.38,39.07
5,-0.16,0.03,-0.38,38.93
5,-0.09,0.88,0.02,39.72
5,-0.09,0.88,0.43,36.93
5,0.11,1.82,0.43,37.15
5,-0.01,1.69,0.25,37.15
5,-0.01,0.44,-0.30,39.20
5,-0.09,0.44,-0.30,37.48
5,-0.10,0.16,-0.34,37.48
5,-0.09,1.00,0.15,38.34
5,0.09,1.00,0.19,38.74
5,0.12,1.87,0.50,38.74
5,-0.05,1.49,0.22,38.28
5,-0.05,1.49,-0.37,38.45
5,-0.12,0.31,-0.37,38.45
5,-0.06,0.38,-0.27,38.11
5,-0.06,0.38,0.18,37.82
5,0.06,1.19,0.18,38.02
5,0.03,1.95,0.47,37.24
5,0.03,1.96,0.09,38.56
5,-0.06,1.27,0.09,38.35
5,-0.13,0.15,-0.41,39.13
5,-0.13,0.47,-0.17,39.88
5,-0.01,0.47,-0.17,38.62
5,0.11,1.36,0.30,38.62
5,0.09,1.99,0.54,38.47
5,0.09,1.99,0.53,38.91
5,-0.03,1.05,0.03,38.91
5,-0.04,-0.00,-0.42,39.40
5,-0.23,-0.00,-0.18,37.11
5,-0.05,0.54,-0.18,37.11
5,0.05,1.50,0.29,39.33
5,0.05,1.50,0.48,37.93
5,0.05,2.03,0.48,37.93
5,-0.11,0.90,-0.08,37.14
5,-0.11,0.91,-0.46,38.41
5,-0.19,-0.09,-0.46,38.38
5,0.03,0.68,-0.06,39.16
5,0.03,1.59,0.41,37.78
5,0.11,1.59,0.41,36.70
5,0.05,2.04,0.46,36.70
5,0.05,0.71,-0.16,40.15
5,-0.08,0.71,-0.17,39.05
5,-0.17,-0.14,-0.42,39.05
5,-0.18,0.76,-0.04,39.45
5,-0.06,0.76,-0.05,39.18
5,0.06,1.72,0.39,39.18
5,0.02,1.90,0.36,39.00
5,0.02,1.90,-0.24,38.07
5,-0.09,0.54,-0.24,38.07
5,-0.13,-0.08,-0.39,37.62
5,-0.13,-0.08,0.09,38.27
5,0.01,0.85,0.09,37.73
5,0.15,1.78,0.47,39.30
5,0.15,1.76,0.31,40.00
5,0.01,1.70,0.31,38.97
5,-0.09,0.47,-0.28,38.97
5,-0.09,0.17,-0.35,37.10
5,-0.09,0.17,-0.35,39.25
5,-0.06,0.98,0.09,39.25
5,-0.03,1.91,0.47,38.71
5,0.03,1.91,0.46,38.48
5,-0.05,1.53,0.21,38.48
5,-0.09,0.33,-0.38,37.95
5,-0.09,0.33,-0.27,37.37
5,-0.04,0.37,-0.27,37.37
5,0.08,1.15,0.22,39.13
5,0.08,1.15,0.51,40.27
5,0.09,1.97,0.51,40.44
5,-0.04,1.31,0.12,35.74
5,-0.04,1.35,-0.39,37.98
5,-0.16,0.16,-0.39,37.91
5,-0.07,0.44,-0.23,38.69
5,-0.07,1.31,0.22,37.10
5,0.10,1.31,0.22,38.30
5,0.06,1.98,0.47,38.30
5,0.03,1.10,0.03,37.57
5,-0.09,1.10,0.02,38.58
5,-0.17,0.09,-0.42,38.58
5,-0.16,0.52,-0.12,36.29
5,0.03,0.52,0.34,38.18
5,0.11,1.43,0.34,38.18
5,0.08,2.04,0.53,38.34
5,0.08,2.04,-0.05,37.63
5,-0.08,0.89,-0.05,38.15
5,-0.20,-0.10,-0.45,39.71
5,-0.20,-0.11,-0.11,38.62
5,-0.07,0.64,-0.11,38.86
5,0.00,1.62,0.33,39.65
5,0.00,2.03,0.42,40.21
5,0.05,2.03,0.42,40.79
5,-0.08,0.73,-0.15,40.79
5,-0.08,-0.12,-0.42,39.06
5,-0.16,-0.12,-0.38,39.32
5,-0.02,0.77,-0.00,39.32
5,-0.04,1.66,0.42,39.17
5,0.15,1.66,0.41,38.17
5,0.08,1.93,0.41,38.17
5,-0.11,0.66,-0.20,37.64
5,-0.11,0.66,-0.42,39.01
5,-0.19,-0.05,-0.42,39.01
5,-0.06,0.85,0.01,41.49
5,-0.06,0.87,0.42,38.79
5,0.10,1.81,0.42,38.64
5,-0.03,1.76,0.30,39.42
5,-0.03,0.47,-0.29,38.06
5,-0.08,0.47,-0.29,37.85
5,-0.08,0.07,-0.35,37.85
5,-0.08,0.93,0.15,41.77
5,0.03,0.93,0.15,38.90
5,0.11,1.89,0.51,38.90
5,0.08,1.52,0.25,38.13
5,-0.05,1.52,0.23,37.69
5,-0.09,0.32,-0.33,37.69
5,-0.11,0.32,-0.28,39.47
5,-0.11,0.32,0.14,38.81
5,0.01,1.04,0.14,38.81
5,0.04,1.92,0.45,36.45
5,0.04,1.93,0.13,36.94
5,-0.04,1.37,0.13,37.52
5,-0.12,0.28,-0.37,39.09
5,-0.12,0.31,-0.20,35.69
5,-0.03,0.44,-0.20,40.69
5,0.14,1.28,0.26,40.69
5,0.14,1.98,0.53,40.02
5,0.11,1.98,0.53,41.02
5,-0.06,1.18,0.09,41.02
5,-0.07,0.06,-0.43,38.46
5,-0.20,0.06,-0.43,39.69
5,-0.04,0.55,-0.18,39.69
5,-0.06,1.48,0.26,38.63
5,0.06,1.48,0.46,39.86
5,0.04,2.02,0.46,39.86
5,-0.06,0.95,-0.07,39.04
5,-0.06,0.95,-0.44,38.65
5,-0.19,-0.04,-0.44,38.80
5,0.01,0.60,-0.08,40.36
5,0.01,0.59,0.39,40.00
5,0.11,1.53,0.39,40.56
5,0.08,2.01,0.49,38.21
5,0.08,0.76,-0.11,37.75
5,-0.08,0.76,-0.11,40.65
5,-0.22,-0.14,-0.44,40.65
5,-0.21,0.71,-0.07,40.28
5,-0.03,0.71,-0.06,39.59
5,0.04,1.69,0.37,39.59
5,0.00,1.99,0.39,39.09
5,0.00,1.99,0.42,41.00
5,-0.09,0.62,-0.20,41.00
5,-0.13,-0.14,-0.40,39.43
5,-0.13,-0.14,0.05,40.05
6,-0.09,1.86,0.44,38.12
6,0.10,1.86,0.49,39.27
6,-0.02,1.61,0.24,39.27
6,-0.04,0.39,-0.35,38.27
6,-0.10,0.39,-0.37,37.03
6,-0.08,0.28,-0.30,37.03
6,0.09,1.05,0.17,37.83
6,0.09,1.05,0.50,39.35
6,0.12,1.91,0.50,39.35
6,-0.05,1.42,0.18,40.25
6,-0.05,1.39,-0.39,39.27
6,-0.15,0.20,-0.39,39.70
6,-0.03,0.42,-0.25,38.14
6,-0.03,1.25,0.20,38.98
6,0.08,1.25,0.20,37.68
6,0.02,1.99,0.49,37.68
6,0.02,1.19,0.07,38.21
6,-0.06,1.19,0.07,40.87
6,-0.16,0.11,-0.41,40.87
6,-0.14,0.47,-0.17,39.95
6,-0.01,0.47,-0.17,38.13
6,0.11,1.39,0.33,38.13
6,0.08,2.05,0.53,40.21
6,0.08,2.05,-0.03,40.35
6,-0.04,0.94,-0.03,40.35
6,-0.23,-0.05,-0.42,38.45
6,-0.23,-0.05,-0.16,40.65
6,-0.05,0.58,-0.16,40.08
6,0.03,1.53,0.30,37.73
6,0.03,1.56,0.47,38.79
6,0.06,2.06,0.47,38.82
6,-0.12,0.81,-0.11,38.82
6,-0.12,-0.10,-0.47,38.96
6,-0.19,-0.10,-0.47,40.21
6,0.02,0.73,-0.03,40.21
6,0.00,1.64,0.42,39.34
6,0.13,1.64,0.39,39.96
6,0.05,2.01,0.45,39.96
6,0.03,0.66,-0.19,38.07
6,-0.10,0.66,-0.43,37.59
6,-0.17,-0.11,-0.43,37.59
6,-0.06,0.80,-0.03,39.21
6,-0.06,0.80,0.39,39.67
6,0.08,1.79,0.39,39.29
6,0.01,1.83,0.32,39.29
6,0.01,1.81,-0.27,37.57
6,-0.08,0.50,-0.27,38.03
6,-0.11,-0.02,-0.36,37.25
6,-0.11,0.87,0.11,38.91
6,0.01,0.87,0.11,36.98
6,0.15,1.84,0.49,36.98
6,0.18,1.63,0.28,38.75
6,-0.01,1.63,0.27,39.37
6,-0.10,0.42,-0.30,39.37
6,-0.09,0.24,-0.34,37.84
6,-0.09,0.24,-0.31,38.40
6,-0.02,1.03,0.12,38.40
6,0.02,1.95,0.47,37.72
6,0.02,1.95,0.19,37.93
6,-0.05,1.44,0.19,37.93
6,-0.11,0.29,-0.38,37.88
6,-0.11,0.29,-0.22,39.14
6,-0.03,0.41,-0.22,39.65
6,0.11,1.24,0.25,40.44
6,0.11,1.99,0.52,39.97
6,0.10,1.99,0.52,39.39
6,-0.04,1.26,0.09,39.39
6,-0.04,0.10,-0.41,39.46
6,-0.18,0.10,-0.42,38.30
6,-0.08,0.46,-0.23,38.30
6,-0.07,1.37,0.25,37.92
6,0.12,1.37,0.28,37.40
6,0.06,2.00,0.47,37.40
6,-0.08,1.07,-0.01,40.10
6,-0.08,1.07,-0.43,39.88
6,-0.19,0.05,-0.43,39.88
6,0.03,0.53,-0.14,37.92
6,0.03,0.54,0.36,41.89
6,0.12,1.48,0.36,41.62
6,0.07,2.02,0.53,39.27
6,0.07,2.04,-0.06,39.00
6,-0.09,0.86,-0.06,39.49
6,-0.20,-0.13,-0.45,39.49
6,-0.20,0.68,-0.08,41.34
6,-0.06,0.68,-0.08,39.19
6,0.01,1.68,0.36,39.19
6,0.03,1.99,0.40,38.72
6,0.03,1.99,0.38,39.22
6,-0.08,0.66,-0.18,39.22
6,-0.16,-0.16,-0.41,41.44
6,-0.16,-0.16,0.03,37.85
6,-0.01,0.80,0.03,37.85
6,0.14,1.72,0.46,38.91
6,0.14,1.72,0.39,38.59
6,0.07,1.88,0.39,38.67
6,-0.10,0.59,-0.23,38.67
6,-0.10,0.61,-0.41,36.83
6,-0.16,-0.01,-0.41,37.09
6,-0.07,0.90,0.02,38.66
6,-0.07,1.84,0.43,38.80
6,0.10,1.84,0.43,38.25
6,-0.04,1.74,0.27,38.25
6,-0.02,0.43,-0.32,37.42
6,-0.08,0.43,-0.33,36.22
6,-0.07,0.14,-0.33,36.22
6,-0.10,0.94,0.16,37.83
6,0.02,0.94,0.51,40.01
6,0.10,1.90,0.51,40.01
6,-0.06,1.50,0.23,40.53
6,-0.06,1.50,-0.36,38.92
6,-0.11,0.27,-0.36,38.92
6,-0.11,0.37,-0.28,38.07
6,-0.11,0.33,0.18,36.57
6,0.01,1.08,0.18,36.65
6,0.05,1.94,0.48,39.00
6,0.05,1.32,0.10,37.21
6,-0.04,1.32,0.10,39.73
6,-0.15,0.19,-0.39,39.73
6,-0.15,0.44,-0.19,36.98
6,-0.02,0.44,-0.21,38.93
6,0.14,1.33,0.29,38.93
6,0.17,2.01,0.53,38.51
6,0.11,2.01,0.56,39.43
6,-0.05,1.10,0.06,39.43
6,-0.21,-0.01,-0.45,39.19
6,-0.21,-0.01,-0.18,38.25
6,-0.06,0.59,-0.18,38.25
6,0.08,1.52,0.31,39.57
6,0.08,1.55,0.48,36.90
6,0.04,2.05,0.48,37.21
6,-0.08,0.90,-0.09,37.99
6,-0.08,0.92,-0.44,38.26
6,-0.19,-0.08,-0.44,39.69
6,0.00,0.63,-0.07,39.69
6,0.00,1.59,0.40,41.27
6,0.10,1.59,0.40,36.88
6,0.07,2.04,0.47,36.88
6,0.11,0.73,-0.14,36.81
6,-0.08,0.73,-0.18,39.26
6,-0.21,-0.14,-0.43,39.26
6,-0.03,0.74,-0.06,39.62
6,-0.03,0.74,0.39,38.59
6,0.06,1.73,0.39,38.59
6,0.00,1.96,0.38,38.49
6,0.00,1.96,-0.23,38.54
6,-0.10,0.59,-0.23,38.94
6,-0.11,-0.13,-0.40,39.73
6,-0.11,-0.18,0.06,39.50
6,0.02,0.82,0.06,39.51
6,0.14,1.82,0.49,40.30
6,0.14,1.76,0.34,40.62
6,-0.00,1.76,0.34,40.47
6,-0.07,0.46,-0.29,40.47
6,-0.12,0.17,-0.35,37.99
6,-0.12,0.17,-0.36,39.91
6,-0.08,0.93,0.08,39.91
6,-0.11,1.89,0.45,39.09
6,0.08,1.89,0.21,39.93
6,-0.02,1.57,0.21,39.93
6,-0.10,0.38,-0.34,38.42
6,-0.10,0.38,-0.28,39.22
6,-0.08,0.31,-0.28,39.22
6,0.08,1.11,0.20,37.12
6,0.08,1.07,0.51,37.44
6,0.12,1.94,0.51,37.39
6,-0.05,1.38,0.15,41.30
6,-0.05,0.19,-0.41,41.47
6,-0.16,0.19,-0.41,40.79
6,-0.03,0.43,-0.26,40.79
6,-0.03,1.31,0.21,37.33
6,0.07,1.31,0.24,40.53
6,0.02,2.01,0.49,40.53
6,0.06,1.12,0.04,38.97
6,-0.06,1.12,0.01,40.52
6,-0.15,0.08,-0.43,40.52
6,0.00,0.49,-0.15,40.64
6,0.00,0.49,0.34,41.31
6,0.11,1.42,0.34,41.31
6,0.08,2.04,0.55,39.15
6,0.08,2.05,-0.04,39.72
6,-0.04,0.93,-0.04,39.31
6,-0.23,-0.06,-0.42,37.74
6,-0.23,0.57,-0.15,38.68
6,-0.05,0.57,-0.15,39.59
6,0.03,1.56,0.32,39.59
6,0.03,2.04,0.45,38.70
6,0.07,2.04,0.45,40.16
6,-0.11,0.80,-0.10,40.16
6,-0.11,-0.11,-0.45,38.43
6,-0.17,-0.11,-0.46,38.94
6,0.03,0.75,-0.03,38.94
6,0.12,1.67,0.43,37.03
6,0.12,1.67,0.45,39.56
6,0.05,1.99,0.45,39.56
6,-0.10,0.67,-0.20,37.90
6,-0.10,0.64,-0.42,38.48
6,-0.16,-0.11,-0.42,39.02
6,-0.06,0.85,-0.01,38.24
6,-0.06,0.83,0.40,40.55
6,0.07,1.83,0.40,38.55
6,0.02,1.82,0.31,38.55
6,0.02,0.49,-0.29,39.44
6,-0.08,0.49,-0.29,36.53
6,-0.12,-0.03,-0.38,36.53
6,-0.12,0.89,0.10,36.57
6,0.00,0.89,0.10,39.90
6,0.14,1.84,0.48,39.90
6,-0.00,1.62,0.27,39.18
6,-0.00,1.62,-0.31,39.45
6,-0.10,0.40,-0.31,39.45
6,-0.09,0.26,-0.33,39.82
6,-0.09,0.26,0.14,39.03
6,-0.03,1.01,0.14,38.71
6,0.03,1.93,0.47,37.14
6,0.03,1.93,0.18,39.98
6,-0.05,1.43,0.18,40.34
6,-0.11,0.26,-0.39,40.34
6,-0.11,0.42,-0.22,39.44
6,-0.02,0.42,-0.22,40.01
6,0.13,1.25,0.25,40.01
6,0.16,1.99,0.53,39.50
6,0.09,1.99,0.54,37.94
6,-0.05,1.24,0.10,37.94
6,-0.00,0.07,-0.42,40.18
6,-0.19,0.07,-0.41,37.45
6,-0.07,0.48,-0.22,37.45
6,0.12,1.40,0.26,39.20
6,0.12,1.40,0.48,40.81
6,0.06,2.01,0.48,40.81
6,-0.07,1.05,-0.02,37.65
6,-0.07,1.01,-0.44,39.50
6,-0.20,0.01,-0.44,39.52
6,0.02,0.55,-0.11,39.52
7,-0.01,1.67,0.36,41.32
7,0.03,2.03,0.41,41.84
7,0.03,2.03,-0.20,39.46
7,-0.08,0.63,-0.20,39.46
7,-0.14,-0.17,-0.41,38.86
7,-0.14,-0.13,0.03,39.64
7,-0.00,0.80,0.03,39.78
7,0.14,1.73,0.46,39.00
7,0.14,1.89,0.39,37.39
7,0.06,1.89,0.39,39.83
7,-0.11,0.57,-0.24,39.83
7,-0.10,0.02,-0.41,39.00
7,-0.17,0.02,-0.41,42.52
7,-0.06,0.91,0.03,42.52
7,-0.01,1.86,0.44,40.24
7,0.11,1.86,0.40,38.94
7,-0.05,1.73,0.28,38.94
7,-0.08,0.42,-0.32,39.42
7,-0.08,0.42,-0.33,39.52
7,-0.06,0.17,-0.33,39.52
7,0.01,0.94,0.14,36.72
7,0.01,0.95,0.52,39.33
7,0.10,1.95,0.52,39.10
7,-0.05,1.48,0.22,39.88
7,-0.05,0.25,-0.38,38.92
7,-0.12,0.25,-0.38,39.11
7,-0.09,0.37,-0.26,39.11
7,-0.09,1.08,0.17,41.76
7,0.01,1.08,0.16,38.23
7,0.04,1.96,0.47,38.23
7,0.01,1.30,0.09,38.24
7,-0.05,1.30,0.10,36.19
7,-0.16,0.20,-0.40,36.19
7,-0.03,0.43,-0.20,40.02
7,-0.03,0.43,0.29,38.50
7,0.17,1.32,0.29,38.50
7,0.11,2.03,0.53,37.19
7,0.11,2.01,0.04,37.85
7,-0.05,1.08,0.04,38.18
7,-0.22,-0.01,-0.44,39.74
7,-0.22,-0.06,-0.16,40.20
7,-0.05,0.56,-0.16,37.63
7,0.10,1.55,0.31,37.63
7,0.10,2.06,0.48,40.50
7,0.04,2.06,0.48,38.86
7,-0.08,0.88,-0.09,38.86
7,-0.11,-0.09,-0.46,41.74
7,-0.17,-0.09,-0.44,41.16
7,0.00,0.63,-0.07,41.16
7,0.10,1.62,0.41,42.62
7,0.10,1.62,0.47,39.70
7,0.07,2.03,0.47,39.70
7,-0.07,0.74,-0.15,36.64
7,-0.07,0.74,-0.44,39.05
7,-0.21,-0.14,-0.44,39.01
7,-0.03,0.74,-0.07,37.44
7,-0.03,0.73,0.39,39.06
7,0.05,1.73,0.39,38.82
7,0.01,1.95,0.39,38.04
7,0.01,0.58,-0.22,40.73
7,-0.10,0.58,-0.22,39.19
7,-0.12,-0.12,-0.41,39.19
7,-0.10,0.86,0.07,38.37
7,0.02,0.86,0.06,38.66
7,0.15,1.83,0.50,38.66
7,0.18,1.74,0.33,37.39
7,-0.00,1.74,-0.29,38.40
7,-0.07,0.45,-0.29,38.40
7,-0.11,0.14,-0.35,39.74
7,-0.11,0.14,0.08,39.89
7,-0.09,0.93,0.08,39.89
7,0.10,1.90,0.47,41.93
7,0.10,1.88,0.22,40.09
7,-0.02,1.57,0.22,40.41
7,-0.10,0.37,-0.34,36.50
7,-0.10,0.29,-0.29,38.20
7,-0.08,0.29,-0.29,39.49
7,0.07,1.10,0.21,39.49
7,0.07,1.94,0.50,38.62
7,0.12,1.94,0.53,40.25
7,-0.05,1.40,0.15,40.25
7,-0.05,0.20,-0.39,37.64
7,-0.18,0.20,-0.38,40.48
7,-0.05,0.43,-0.25,40.48
7,0.06,1.26,0.22,38.83
7,0.06,1.26,0.49,40.19
7,0.02,2.01,0.49,40.19
7,-0.07,1.14,0.05,39.02
7,-0.07,1.18,-0.44,39.13
7,-0.16,0.06,-0.44,39.23
7,0.01,0.50,-0.14,40.01
7,0.01,0.56,0.34,39.56
7,0.14,1.44,0.34,40.41
7,0.08,2.03,0.53,40.41
7,0.08,0.92,-0.04,39.01
7,-0.04,0.92,-0.04,40.21
7,-0.22,-0.11,-0.45,40.21
7,-0.23,0.58,-0.14,38.36
7,-0.04,0.58,-0.17,40.55
7,0.05,1.59,0.33,40.55
7,0.06,2.05,0.46,39.32
7,0.06,2.05,-0.12,38.22
7,-0.11,0.79,-0.12,38.22
7,-0.18,-0.14,-0.45,38.69
7,-0.18,-0.14,-0.02,37.68
7,0.03,0.74,-0.02,38.11
7,0.11,1.67,0.44,42.03
7,0.11,1.63,0.45,39.23
7,0.04,2.00,0.45,39.13
7,-0.09,0.67,-0.19,40.70
7,-0.09,-0.11,-0.43,40.69
7,-0.15,-0.11,-0.43,41.34
7,-0.06,0.86,-0.02,41.34
7,-0.02,1.84,0.42,39.76
7,0.04,1.84,0.38,39.75
7,0.01,1.84,0.32,39.75
7,-0.08,0.49,-0.28,41.21
7,-0.08,0.49,-0.37,39.76
7,-0.11,0.02,-0.37,39.76
7,0.01,0.87,0.11,40.19
7,0.01,0.87,0.49,37.37
7,0.16,1.85,0.49,37.00
7,-0.01,1.63,0.27,39.35
7,-0.01,1.63,-0.32,39.49
7,-0.12,0.38,-0.32,39.51
7,-0.08,0.25,-0.34,39.51
7,-0.08,0.97,0.14,39.88
7,-0.06,0.97,0.14,40.55
7,0.07,1.96,0.48,40.55
7,0.07,1.44,0.18,38.61
7,-0.05,1.44,0.17,39.05
7,-0.12,0.26,-0.39,39.05
7,-0.09,0.41,-0.23,39.94
7,-0.02,0.41,0.26,39.52
7,0.10,1.21,0.26,39.52
7,0.08,2.02,0.54,39.87
7,0.08,2.02,0.10,39.18
7,-0.04,1.23,0.10,39.18
7,-0.19,0.07,-0.41,39.52
7,-0.19,0.09,-0.21,38.46
7,-0.08,0.47,-0.21,38.50
7,0.12,1.39,0.26,39.29
7,0.12,2.02,0.48,38.06
7,0.06,2.02,0.48,41.18
7,-0.07,1.04,-0.03,41.18
7,-0.07,0.02,-0.44,40.97
7,-0.21,0.02,-0.49,40.59
7,0.01,0.56,-0.12,40.59
7,0.06,1.48,0.35,38.78
7,0.12,1.48,0.34,39.03
7,0.09,2.04,0.52,39.03
7,-0.08,0.83,-0.07,39.44
7,-0.08,0.83,-0.46,40.68
7,-0.20,-0.16,-0.46,40.68
7,-0.06,0.66,-0.09,37.58
7,-0.06,0.63,0.37,40.31
7,-0.00,1.69,0.37,40.22
7,0.03,2.03,0.42,38.65
7,0.03,2.02,-0.19,39.23
7,-0.08,0.65,-0.19,39.51
7,-0.14,-0.20,-0.42,39.51
7,-0.14,0.80,0.01,38.16
7,0.01,0.80,0.01,38.45
7,0.14,1.76,0.46,38.45
7,0.13,1.88,0.39,38.67
7,0.06,1.88,0.41,39.52
7,-0.10,0.60,-0.22,39.52
7,-0.17,-0.02,-0.41,41.52
7,-0.17,-0.02,0.01,40.39
7,-0.05,0.90,0.01,40.39
7,0.11,1.86,0.43,40.88
7,0.11,1.86,0.27,39.53
7,-0.04,1.74,0.27,39.32
7,-0.08,0.46,-0.32,38.53
7,-0.08,0.44,-0.32,39.21
7,-0.08,0.13,-0.32,39.12
7,0.02,0.96,0.16,36.77
7,0.02,1.94,0.52,39.63
7,0.10,1.94,0.52,39.56
7,-0.06,1.50,0.23,39.56
7,-0.06,0.26,-0.37,40.24
7,-0.12,0.26,-0.35,38.45
7,-0.10,0.36,-0.28,38.45
7,-0.10,1.04,0.17,38.72
7,-0.03,1.04,0.48,39.40
7,0.06,1.96,0.48,39.40
7,-0.04,1.32,0.11,41.15
7,-0.04,1.32,-0.39,39.86
7,-0.15,0.21,-0.39,39.13
7,-0.02,0.42,-0.19,39.91
7,-0.02,0.38,0.27,38.83
7,0.16,1.31,0.27,38.53
7,0.12,2.00,0.53,40.10
7,0.12,1.13,0.07,40.20
7,-0.05,1.13,0.07,38.60
7,-0.21,0.02,-0.44,38.60
7,-0.21,0.55,-0.18,41.12
7,-0.03,0.55,-0.15,37.55
7,0.14,1.54,0.29,37.55
7,0.15,2.05,0.47,38.53
7,0.03,2.05,0.49,40.03
7,-0.08,0.91,-0.07,40.03
7,-0.18,-0.09,-0.45,43.71
7,-0.18,-0.09,-0.07,39.24
7,-0.00,0.62,-0.07,39.24
7,0.09,1.61,0.40,40.83
7,0.09,1.60,0.47,39.71
7,0.06,2.04,0.47,39.24
7,-0.07,0.74,-0.15,40.80
7,-0.07,0.69,-0.44,37.97
7,-0.20,-0.18,-0.44,38.51
7,-0.05,0.73,-0.07,38.51
7,-0.05,1.73,0.36,38.39
7,0.02,1.73,0.36,41.81
7,0.02,1.99,0.40,41.81
7,0.02,0.60,-0.21,40.64
7,-0.10,0.60,-0.24,37.91
7,-0.12,-0.16,-0.43,37.91
7,0.03,0.83,0.06,38.98
7,0.03,0.83,0.49,40.48
7,0.15,1.79,0.49,40.48
7,0.01,1.81,0.36,38.65
7,0.01,1.85,-0.28,40.37
7,-0.09,0.48,-0.28,40.25
7,-0.13,0.14,-0.35,41.03
7,-0.13,0.18,0.08,40.54
7,-0.08,0.93,0.08,40.24
7,0.11,1.91,0.46,38.67
7,0.11,1.61,0.24,36.99
7,-0.02,1.61,0.24,39.56
7,-0.10,0.36,-0.35,39.56
7,-0.08,0.29,-0.28,39.03
7,-0.08,0.29,-0.26,37.85
8,-0.01,1.15,0.49,39.88
8,0.02,2.03,0.49,39.89
8,-0.07,1.20,0.08,39.10
8,-0.07,0.08,-0.43,40.88
8,-0.16,0.08,-0.43,37.45
8,-0.00,0.46,-0.17,37.45
8,-0.02,1.41,0.34,37.61
8,0.17,1.41,0.36,39.65
8,0.08,2.06,0.55,39.65
8,0.09,0.95,-0.02,39.78
8,-0.03,0.95,-0.43,39.67
8,-0.21,-0.10,-0.43,39.67
8,-0.05,0.55,-0.16,38.99
8,-0.05,0.55,0.32,39.44
8,0.10,1.57,0.32,39.46
8,0.07,2.05,0.47,39.46
8,0.07,2.00,-0.10,40.60
8,-0.11,0.82,-0.10,39.91
8,-0.18,-0.12,-0.46,39.12
8,-0.18,0.70,-0.04,40.13
8,0.03,0.70,-0.04,41.33
8,0.12,1.65,0.43,41.33
8,0.12,2.03,0.46,38.61
8,0.05,2.03,0.44,38.01
8,-0.09,0.70,-0.19,38.01
8,-0.10,-0.14,-0.44,40.08
8,-0.16,-0.14,-0.47,37.21
8,-0.06,0.83,-0.03,37.21
8,0.02,1.84,0.44,38.64
8,0.02,1.84,0.34,38.84
8,0.03,1.86,0.34,38.84
8,-0.07,0.51,-0.28,41.26
8,-0.07,0.50,-0.38,38.60
8,-0.10,-0.06,-0.38,38.91
8,-0.00,0.85,0.10,34.99
8,-0.00,0.86,0.50,37.89
8,0.15,1.86,0.50,37.13
8,0.00,1.66,0.29,37.13
8,0.00,0.41,-0.30,38.37
8,-0.10,0.41,-0.30,39.61
8,-0.11,0.20,-0.34,39.61
8,-0.11,0.94,0.12,38.94
8,-0.05,0.94,0.11,37.99
8,0.08,1.95,0.49,37.99
8,-0.06,1.49,0.19,39.85
8,-0.06,1.49,-0.39,38.45
8,-0.11,0.30,-0.39,38.45
8,-0.03,0.38,-0.25,39.65
8,-0.03,0.43,0.24,39.71
8,0.08,1.18,0.24,39.87
8,0.09,2.00,0.53,40.65
8,0.09,2.03,0.11,36.66
8,-0.06,1.28,0.11,39.41
8,-0.17,0.10,-0.40,39.41
8,-0.17,0.45,-0.23,40.03
8,-0.07,0.45,-0.23,39.81
8,0.10,1.33,0.21,39.81
8,0.12,2.01,0.47,40.08
8,0.05,2.01,0.45,39.05
8,-0.06,1.10,0.01,39.05
8,-0.07,0.04,-0.44,39.15
8,-0.19,0.04,-0.14,37.86
8,0.01,0.52,-0.14,37.86
8,0.15,1.47,0.36,38.77
8,0.15,1.47,0.54,39.50
8,0.09,2.03,0.54,39.72
8,-0.08,0.89,-0.05,39.72
8,-0.08,0.91,-0.46,38.44
8,-0.21,-0.15,-0.46,38.70
8,-0.04,0.65,-0.10,40.27
8,-0.04,1.70,0.37,39.52
8,0.06,1.70,0.37,37.81
8,0.05,2.01,0.44,37.81
8,0.05,0.69,-0.17,39.75
8,-0.08,0.69,-0.13,39.25
8,-0.14,-0.21,-0.44,39.25
8,-0.18,0.77,0.01,40.35
8,0.01,0.77,0.01,40.54
8,0.12,1.74,0.45,40.54
8,0.06,1.95,0.40,38.95
8,0.06,1.95,-0.22,38.09
8,-0.10,0.61,-0.22,38.09
8,-0.17,-0.06,-0.43,39.17
8,-0.17,-0.11,0.01,39.20
8,-0.03,0.89,0.01,39.20
8,0.07,1.86,0.43,41.55
8,0.07,1.81,0.29,40.59
8,-0.03,1.81,0.29,42.15
8,-0.08,0.48,-0.30,42.15
8,-0.08,0.07,-0.35,37.41
8,-0.08,0.07,-0.37,37.54
8,0.02,0.92,0.13,37.54
8,0.01,1.91,0.52,37.93
8,0.13,1.91,0.51,38.00
8,-0.04,1.57,0.26,38.00
8,-0.11,0.29,-0.35,38.92
8,-0.11,0.29,-0.30,42.32
8,-0.10,0.33,-0.30,42.32
8,-0.05,1.00,0.13,39.27
8,-0.05,0.96,0.45,40.05
8,0.08,1.96,0.45,40.14
8,-0.03,1.37,0.11,37.79
8,-0.03,1.34,-0.38,40.20
8,-0.15,0.21,-0.38,40.64
8,-0.03,0.42,-0.21,40.64
8,-0.03,1.26,0.27,38.66
8,0.14,1.26,0.27,40.36
8,0.12,2.01,0.53,40.36
8,0.07,1.17,0.08,38.27
8,-0.05,1.17,0.11,39.49
8,-0.22,-0.00,-0.45,39.49
8,-0.03,0.53,-0.19,42.10
8,-0.03,0.53,0.28,39.03
8,0.14,1.50,0.28,39.03
8,0.03,2.07,0.50,38.55
8,0.03,2.08,-0.06,38.21
8,-0.09,0.96,-0.06,38.08
8,-0.19,-0.07,-0.46,38.86
8,-0.19,-0.10,-0.10,39.01
8,-0.00,0.59,-0.10,39.05
8,0.10,1.57,0.37,42.19
8,0.10,2.07,0.50,39.79
8,0.08,2.07,0.50,39.06
8,-0.06,0.78,-0.12,39.06
8,-0.03,-0.17,-0.45,38.09
8,-0.22,-0.17,-0.47,39.97
8,-0.04,0.68,-0.09,39.97
8,-0.03,1.71,0.39,39.26
8,0.03,1.71,0.42,40.76
8,0.04,2.00,0.42,40.76
8,-0.10,0.62,-0.20,39.54
8,-0.10,0.62,-0.42,40.10
8,-0.14,-0.19,-0.42,40.10
8,0.04,0.83,0.03,38.91
8,0.04,0.87,0.49,37.87
8,0.16,1.81,0.49,38.27
8,0.03,1.85,0.38,39.83
8,0.03,0.54,-0.28,38.40
8,-0.09,0.54,-0.28,39.09
8,-0.12,0.07,-0.37,39.09
8,-0.12,0.93,0.06,40.75
8,-0.07,0.93,0.00,38.26
8,0.10,1.93,0.44,38.26
8,0.10,1.64,0.24,38.08
8,-0.02,1.64,0.23,37.56
8,-0.09,0.41,-0.33,37.56
8,-0.08,0.23,-0.33,37.93
8,-0.08,0.23,0.17,40.19
8,0.03,1.00,0.17,40.19
8,0.13,1.94,0.51,37.85
8,0.13,1.95,0.19,39.69
8,-0.04,1.45,0.19,39.80
8,-0.16,0.24,-0.38,39.80
8,-0.16,0.37,-0.29,38.67
8,-0.06,0.37,-0.29,37.89
8,-0.01,1.13,0.21,37.89
8,-0.01,2.02,0.51,39.50
8,0.02,2.02,0.51,39.65
8,-0.07,1.24,0.09,39.65
8,-0.10,0.14,-0.43,40.54
8,-0.16,0.14,-0.43,36.26
8,0.00,0.44,-0.18,36.26
8,0.15,1.38,0.32,41.02
8,0.15,1.38,0.54,37.93
8,0.09,2.05,0.54,37.93
8,-0.02,1.01,0.01,38.56
8,-0.02,1.00,-0.42,39.68
8,-0.22,-0.06,-0.42,39.79
8,-0.06,0.52,-0.16,38.22
8,-0.06,0.53,0.32,36.96
8,0.13,1.53,0.32,41.18
8,0.06,2.05,0.48,41.18
8,0.06,0.90,-0.08,38.47
8,-0.11,0.90,-0.08,39.46
8,-0.20,-0.12,-0.46,39.46
8,-0.23,0.67,-0.05,41.03
8,0.02,0.67,-0.02,39.26
8,0.12,1.62,0.42,39.26
8,0.05,2.05,0.48,37.29
8,0.05,2.05,-0.16,40.08
8,-0.09,0.74,-0.16,40.08
8,-0.17,-0.19,-0.46,38.60
8,-0.17,-0.19,-0.03,39.26
8,-0.07,0.81,-0.03,39.20
8,-0.01,1.81,0.39,39.20
8,-0.01,1.78,0.37,37.65
8,0.03,1.90,0.37,37.87
8,-0.07,0.53,-0.26,39.44
8,-0.07,-0.16,-0.39,39.59
8,-0.10,-0.16,-0.39,37.86
8,0.00,0.85,0.08,37.86
8,0.03,1.85,0.49,39.54
8,0.16,1.85,0.44,38.47
8,0.04,1.73,0.32,38.47
8,0.03,0.45,-0.29,38.83
8,-0.10,0.45,-0.30,41.36
8,-0.13,0.13,-0.36,41.36
8,-0.05,0.96,0.10,38.16
8,-0.05,0.96,0.48,39.58
8,0.11,1.94,0.48,39.58
8,-0.05,1.58,0.23,40.14
8,-0.05,1.59,-0.38,39.38
8,-0.10,0.34,-0.38,39.19
8,-0.04,0.32,-0.27,36.84
8,-0.04,1.09,0.20,38.83
8,0.07,1.09,0.20,37.49
8,0.09,1.98,0.53,37.49
8,0.09,1.39,0.15,39.10
8,-0.07,1.39,0.16,38.30
8,-0.17,0.13,-0.41,38.30
8,-0.15,0.43,-0.26,38.74
8,-0.09,0.43,-0.29,39.63
8,0.05,1.20,0.21,39.63
8,0.06,2.01,0.47,39.79
8,0.06,2.01,0.04,39.79
8,-0.05,1.16,0.04,39.79
8,-0.20,0.06,-0.44,39.46
8,-0.20,0.09,-0.16,37.71
8,-0.00,0.47,-0.16,37.59
8,0.17,1.43,0.32,39.16
8,0.17,1.43,0.56,38.20
8,0.10,2.05,0.56,39.38
8,-0.05,0.95,-0.02,39.38
8,-0.05,-0.16,-0.47,39.14
8,-0.21,-0.16,-0.47,39.32
8,-0.05,0.62,-0.12,39.32
8,-0.01,1.64,0.37,40.03
8,0.11,1.64,0.34,37.96
8,0.05,2.07,0.47,37.96
8,-0.08,0.75,-0.13,38.14
8,-0.08,0.75,-0.44,39.24
8,-0.16,-0.18,-0.44,39.24
8,-0.01,0.72,-0.03,38.72
9,0.04,1.84,0.44,40.49
9,0.05,1.86,0.32,39.63
9,-0.01,1.86,0.33,40.04
9,-0.08,0.50,-0.29,40.04
9,-0.08,-0.03,-0.37,38.84
9,-0.08,-0.03,0.10,38.27
9,0.01,0.88,0.10,38.27
9,0.15,1.91,0.51,38.39
9,0.15,1.89,0.30,39.86
9,-0.03,1.64,0.30,39.75
9,-0.12,0.34,-0.34,39.75
9,-0.12,0.33,-0.32,39.19
9,-0.10,0.27,-0.32,39.38
9,-0.07,0.93,0.13,39.38
9,-0.07,1.98,0.47,41.92
9,0.09,1.98,0.47,37.38
9,-0.03,1.43,0.16,37.38
9,-0.02,0.28,-0.37,37.82
9,-0.15,0.28,-0.37,41.31
9,-0.07,0.37,-0.24,41.31
9,0.10,1.17,0.25,40.70
9,0.10,1.17,0.54,37.38
9,0.11,2.01,0.54,37.38
9,-0.05,1.27,0.12,38.22
9,-0.05,1.27,-0.44,39.46
9,-0.20,0.07,-0.44,39.64
9,-0.04,0.48,-0.22,36.51
9,-0.04,0.45,0.25,39.60
9,0.09,1.39,0.25,39.52
9,0.01,2.07,0.50,39.52
9,0.01,1.03,-0.03,37.08
9,-0.07,1.03,-0.03,37.73
9,-0.19,-0.03,-0.46,37.73
9,-0.18,0.53,-0.13,41.15
9,0.01,0.53,-0.11,38.02
9,0.12,1.53,0.39,38.02
9,0.08,2.07,0.54,38.21
9,0.08,2.07,-0.08,39.76
9,-0.05,0.83,-0.08,39.76
9,-0.23,-0.16,-0.45,39.70
9,-0.23,-0.16,-0.12,38.11
9,-0.05,0.61,-0.12,38.06
9,0.06,1.65,0.37,41.20
9,0.06,1.66,0.43,40.28
9,0.06,2.03,0.43,40.16
9,-0.11,0.70,-0.16,39.38
9,-0.11,-0.22,-0.43,38.94
9,-0.16,-0.22,-0.43,38.57
9,0.03,0.79,0.01,38.57
9,0.03,1.77,0.47,36.08
9,0.14,1.77,0.48,40.07
9,0.04,1.92,0.42,40.07
9,0.03,0.61,-0.24,39.18
9,-0.09,0.61,-0.22,39.89
9,-0.14,-0.06,-0.41,39.89
9,-0.04,0.92,0.02,40.22
9,-0.04,0.92,0.42,40.76
9,0.05,1.94,0.42,40.76
9,-0.02,1.73,0.26,39.74
9,-0.02,1.69,-0.30,39.09
9,-0.08,0.44,-0.30,39.08
9,-0.09,0.08,-0.37,39.86
9,-0.09,0.93,0.13,39.15
9,0.01,0.93,0.13,40.28
9,0.13,1.92,0.50,40.28
9,0.13,1.54,0.23,40.92
9,-0.02,1.54,0.23,41.45
9,-0.15,0.30,-0.36,41.45
9,-0.15,0.32,-0.30,39.67
9,-0.08,0.32,-0.27,38.00
9,-0.05,1.01,0.17,38.00
9,0.06,2.00,0.49,37.21
9,0.06,2.00,0.12,38.56
9,-0.07,1.35,0.12,38.56
9,-0.15,0.19,-0.41,38.32
9,-0.15,0.20,-0.20,41.12
9,-0.00,0.45,-0.20,40.94
9,0.15,1.32,0.29,38.59
9,0.15,1.34,0.55,38.51
9,0.10,2.03,0.55,39.69
9,-0.02,1.13,0.06,39.69
9,-0.02,-0.02,-0.43,39.51
9,-0.22,-0.02,-0.43,41.20
9,-0.05,0.49,-0.20,41.20
9,-0.02,1.47,0.30,39.49
9,0.16,1.47,0.31,40.60
9,0.05,2.05,0.49,40.60
9,0.03,0.98,-0.05,36.32
9,-0.10,0.98,-0.47,37.52
9,-0.21,-0.08,-0.47,37.52
9,0.03,0.59,-0.09,39.29
9,0.03,0.59,0.37,38.43
9,0.12,1.56,0.37,38.33
9,0.06,2.07,0.50,38.33
9,0.06,2.09,-0.12,37.18
9,-0.09,0.78,-0.12,36.85
9,-0.18,-0.22,-0.47,38.42
9,-0.18,0.73,-0.07,40.85
9,-0.08,0.73,-0.07,40.00
9,0.01,1.75,0.38,40.00
9,0.03,1.99,0.43,40.82
9,0.03,1.99,0.40,40.16
9,-0.08,0.59,-0.22,40.16
9,-0.12,-0.20,-0.42,39.13
9,-0.12,-0.20,-0.39,39.32
9,0.02,0.83,0.05,39.32
9,0.14,1.80,0.48,38.46
9,0.14,1.80,0.37,39.70
9,0.06,1.84,0.37,39.70
9,-0.11,0.52,-0.25,37.77
9,-0.11,0.50,-0.39,40.86
9,-0.15,0.06,-0.39,41.32
9,-0.04,0.95,0.06,42.10
9,-0.04,1.93,0.48,39.83
9,0.11,1.93,0.48,38.79
9,-0.06,1.67,0.27,38.79
9,-0.06,0.38,-0.35,39.23
9,-0.09,0.38,-0.35,38.14
9,-0.05,0.23,-0.32,38.14
9,-0.04,0.98,0.17,41.63
9,0.02,0.98,0.15,38.82
9,0.10,1.98,0.53,38.82
9,-0.06,1.45,0.17,43.00
9,-0.06,1.45,-0.40,40.64
9,-0.15,0.18,-0.40,40.64
9,-0.10,0.40,-0.28,38.53
9,-0.10,0.39,0.18,38.86
9,-0.03,1.08,0.18,39.09
9,0.05,2.00,0.48,39.09
9,0.05,1.99,0.09,39.75
9,-0.06,1.24,0.09,39.58
9,-0.19,0.15,-0.42,39.58
9,-0.19,0.43,-0.19,40.69
9,-0.01,0.43,-0.19,38.82
9,0.19,1.36,0.30,38.82
9,0.24,2.05,0.54,38.86
9,0.12,2.05,0.52,40.34
9,-0.05,1.03,0.02,40.34
9,-0.22,-0.08,-0.46,41.12
9,-0.22,-0.08,-0.16,38.74
9,-0.04,0.58,-0.16,38.74
9,0.17,1.62,0.36,38.58
9,0.17,1.62,0.49,39.98
9,0.04,2.08,0.49,40.47
9,-0.08,0.84,-0.11,38.12
9,-0.08,0.85,-0.46,40.17
9,-0.19,-0.15,-0.46,40.51
9,0.00,0.64,-0.06,39.72
9,0.00,1.66,0.42,39.26
9,0.10,1.66,0.42,39.00
9,0.06,2.02,0.47,39.00
9,0.05,0.73,-0.17,39.47
9,-0.08,0.73,-0.14,38.23
9,-0.21,-0.17,-0.45,38.23
9,-0.22,0.76,-0.06,40.63
9,-0.04,0.76,0.39,41.62
9,0.03,1.79,0.39,41.62
9,0.02,1.93,0.39,38.63
9,0.02,1.93,-0.25,39.36
9,-0.09,0.57,-0.25,39.36
9,-0.11,-0.14,-0.41,38.38
9,-0.11,-0.15,0.08,38.55
9,0.02,0.85,0.08,38.72
9,0.14,1.87,0.52,38.72
9,0.14,1.73,0.34,38.28
9,0.00,1.73,0.34,38.44
9,-0.08,0.42,-0.31,38.44
9,-0.08,0.14,-0.35,39.97
9,-0.11,0.14,-0.34,40.33
9,-0.06,0.95,0.10,40.33
9,-0.07,1.96,0.47,37.29
9,0.12,1.96,0.47,38.16
9,-0.03,1.55,0.22,38.16
9,-0.11,0.35,-0.36,37.76
9,-0.11,0.35,-0.28,38.53
9,-0.08,0.29,-0.28,38.53
9,0.05,1.06,0.21,41.26
9,0.05,1.04,0.52,39.73
9,0.11,1.98,0.52,39.29
9,-0.05,1.41,0.15,42.42
9,-0.05,1.42,-0.40,38.08
9,-0.18,0.17,-0.40,37.17
9,-0.05,0.42,-0.26,37.17
9,-0.05,1.22,0.20,39.22
9,0.02,1.22,0.20,38.17
9,0.01,2.04,0.49,38.17
9,0.00,1.15,0.05,39.97
9,-0.06,1.15,0.06,38.61
9,-0.18,0.05,-0.44,38.61
9,0.02,0.51,-0.16,38.90
9,0.02,0.51,0.35,39.37
9,0.18,1.46,0.35,39.37
9,0.09,2.06,0.55,38.27
9,0.09,2.11,-0.04,38.25
9,-0.03,0.92,-0.04,37.99
9,-0.23,-0.12,-0.45,38.77
9,-0.23,-0.07,-0.15,39.78
9,-0.03,0.55,-0.15,39.37
9,0.15,1.61,0.32,41.72
9,0.15,2.07,0.47,42.52
9,0.05,2.07,0.47,40.18
9,-0.10,0.80,-0.12,40.18
9,-0.11,-0.16,-0.46,40.24
9,-0.18,-0.16,-0.46,38.40
9,0.03,0.72,-0.02,38.40
9,0.03,1.69,0.44,37.32
9,0.10,1.69,0.46,38.28
9,0.04,2.02,0.46,38.28
9,-0.09,0.66,-0.19,37.79
9,-0.09,0.66,-0.44,39.35
9,-0.16,-0.14,-0.44,39.65
9,-0.07,0.84,-0.02,37.30
9,-0.07,0.87,0.42,40.94
9,0.00,1.87,0.42,41.30
9,0.02,1.84,0.33,37.38
9,0.02,0.49,-0.29,38.11
9,-0.07,0.49,-0.29,38.69
9,-0.11,-0.04,-0.39,38.69
9,-0.12,0.87,0.09,38.26
9,0.00,0.87,0.07,39.28
9,0.17,1.88,0.50,39.28
9,0.13,1.66,0.29,38.30
9,0.01,1.66,0.31,36.83
9,-0.12,0.38,-0.32,36.83
9,-0.09,0.20,-0.35,40.91
9,-0.09,0.20,0.12,41.95
9,-0.07,0.97,0.12,41.95
9,0.10,2.00,0.48,40.02
9,0.10,1.98,0.19,38.92
9,-0.05,1.48,0.19,38.66
9,-0.11,0.26,-0.39,40.23
9,-0.11,0.26,-0.23,40.45
9,-0.03,0.39,-0.23,39.70
10,0.11,1.32,0.48,40.04
10,-0.11,0.30,-0.30,39.82
10,-0.07,0.98,0.16,39.82
10,-0.07,1.98,0.48,39.04
10,0.10,1.98,0.48,40.44
10,-0.04,1.38,0.14,40.44
10,-0.02,0.23,-0.38,37.60
10,-0.14,0.23,-0.40,36.10
10,-0.02,0.39,-0.21,36.10
10,0.13,1.23,0.27,38.54
10,0.13,1.23,0.54,40.13
10,0.11,2.01,0.54,40.13
10,-0.06,1.20,0.10,37.63
10,-0.06,1.20,-0.44,40.03
10,-0.22,0.03,-0.44,40.20
10,-0.03,0.51,-0.19,38.63
10,-0.03,0.53,0.29,37.44
10,0.13,1.47,0.29,37.27
10,0.02,2.08,0.48,37.27
10,0.02,0.97,-0.06,39.83
10,-0.07,0.97,-0.06,40.02
10,-0.20,-0.09,-0.46,40.02
10,-0.25,0.58,-0.10,38.61
10,0.00,0.58,-0.10,37.80
10,0.14,1.58,0.40,37.80
10,0.13,2.04,0.51,37.64
10,0.07,2.04,0.51,38.02
10,-0.08,0.78,-0.12,38.02
10,-0.22,-0.20,-0.47,38.34
10,-0.22,-0.20,-0.09,40.07
10,-0.04,0.68,-0.09,40.07
10,0.04,1.72,0.39,39.87
10,0.04,1.70,0.42,43.95
10,0.03,2.01,0.42,44.11
10,-0.10,0.62,-0.20,38.62
10,-0.10,0.59,-0.43,37.94
10,-0.14,-0.22,-0.43,40.64
10,0.04,0.83,0.03,40.64
10,0.04,1.81,0.49,39.64
10,0.13,1.81,0.49,36.57
10,0.04,1.88,0.40,36.57
10,0.04,0.53,-0.27,39.83
10,-0.09,0.53,-0.26,40.72
10,-0.14,0.02,-0.38,40.72
10,-0.15,0.95,0.05,39.78
10,-0.03,0.95,0.45,38.80
10,0.07,1.94,0.45,38.80
10,-0.01,1.70,0.26,39.15
10,-0.01,1.70,-0.33,39.13
10,-0.09,0.40,-0.33,39.13
10,-0.10,0.17,-0.32,38.90
10,-0.10,0.13,0.16,39.11
10,0.02,0.94,0.16,39.46
10,0.14,1.96,0.52,40.24
10,0.14,1.50,0.21,38.36
10,-0.04,1.50,0.21,38.57
10,-0.16,0.25,-0.40,38.57
10,-0.16,0.35,-0.30,40.32
10,-0.05,0.35,-0.30,40.26
10,-0.05,1.06,0.17,40.26
10,-0.02,2.03,0.50,39.96
10,0.04,2.03,0.53,40.85
10,-0.06,1.28,0.09,40.85
10,-0.15,0.14,-0.43,39.48
10,-0.15,0.14,-0.19,41.71
10,-0.01,0.45,-0.19,41.71
10,0.15,1.36,0.30,39.24
10,0.15,1.36,0.56,42.66
10,0.10,2.06,0.56,42.76
10,-0.01,1.04,0.02,38.84
10,-0.01,1.03,-0.44,41.79
10,-0.22,-0.04,-0.44,42.22
10,-0.05,0.51,-0.18,37.52
10,-0.05,1.53,0.29,38.78
10,0.16,1.53,0.29,38.53
10,0.05,2.07,0.48,38.53
10,0.05,0.90,-0.07,40.94
10,-0.11,0.90,-0.10,39.22
10,-0.20,-0.08,-0.47,39.22
10,-0.22,0.64,-0.07,37.71
10,0.03,0.64,-0.07,36.30
10,0.11,1.63,0.43,36.30
10,0.06,2.08,0.48,40.26
10,0.06,2.08,-0.17,38.61
10,-0.10,0.74,-0.17,38.61
10,-0.18,-0.21,-0.46,40.49
10,-0.18,-0.19,-0.07,39.44
10,-0.08,0.74,-0.07,39.31
10,0.01,1.83,0.40,36.96
10,0.01,1.86,0.40,39.86
10,0.04,1.93,0.40,40.85
10,-0.08,0.54,-0.24,40.85
10,-0.08,-0.19,-0.41,39.00
10,-0.12,-0.19,-0.41,38.31
10,0.03,0.85,0.06,38.31
10,0.01,1.87,0.49,37.75
10,0.14,1.87,0.47,37.33
10,0.05,1.77,0.35,37.33
10,0.02,0.49,-0.27,39.09
10,-0.10,0.49,-0.39,41.39
10,-0.13,0.06,-0.39,41.39
10,-0.04,0.97,0.09,38.82
10,-0.04,0.97,0.48,38.23
10,0.10,1.97,0.48,38.23
10,-0.07,1.61,0.25,40.37
10,-0.07,1.61,-0.36,40.19
10,-0.09,0.36,-0.36,40.66
10,-0.06,0.24,-0.30,38.31
10,-0.06,1.02,0.22,41.51
10,0.03,1.02,0.22,38.21
10,0.09,2.00,0.53,38.21
10,0.09,1.41,0.15,39.67
10,-0.05,1.41,0.15,36.96
10,-0.16,0.17,-0.40,36.96
10,-0.15,0.40,-0.27,38.59
10,-0.09,0.40,-0.31,38.28
10,-0.02,1.12,0.19,38.28
10,0.05,2.02,0.48,39.39
10,0.05,2.02,0.08,38.84
10,-0.06,1.22,0.08,38.84
10,-0.18,0.12,-0.43,40.32
10,-0.18,0.07,-0.17,39.62
10,0.01,0.45,-0.17,39.14
10,0.19,1.40,0.33,39.92
10,0.19,1.43,0.55,38.91
10,0.11,2.06,0.55,38.96
10,-0.06,1.00,-0.00,38.96
10,-0.06,-0.10,-0.46,39.34
10,-0.22,-0.10,-0.46,39.53
10,-0.04,0.58,-0.15,39.53
10,-0.02,1.62,0.35,40.37
10,0.16,1.62,0.34,39.48
10,0.05,2.05,0.47,39.48
10,0.04,0.82,-0.11,38.48
10,-0.08,0.82,-0.46,37.00
10,-0.19,-0.16,-0.46,37.00
10,0.00,0.69,-0.04,41.07
10,0.00,0.69,0.43,36.24
10,0.11,1.68,0.43,36.24
10,0.07,2.03,0.46,38.27
10,0.07,2.06,-0.18,42.75
10,-0.09,0.69,-0.18,42.71
10,-0.19,-0.18,-0.46,39.58
10,-0.19,0.82,-0.04,40.12
10,-0.02,0.82,-0.04,38.11
10,0.02,1.84,0.41,38.11
10,0.02,1.92,0.36,39.24
10,0.01,1.92,0.34,38.00
10,-0.09,0.51,-0.28,38.00
10,-0.10,-0.12,-0.42,38.96
10,-0.10,-0.12,-0.41,39.72
10,0.04,0.90,0.09,39.72
10,0.15,1.90,0.52,38.22
10,0.15,1.90,0.33,41.14
10,0.01,1.72,0.33,41.14
10,-0.09,0.38,-0.32,38.30
10,-0.09,0.43,-0.35,38.46
10,-0.13,0.18,-0.35,38.49
10,-0.04,0.96,0.12,40.06
10,-0.04,0.97,0.50,39.57
10,0.15,1.97,0.50,39.68
10,-0.02,1.55,0.21,40.47
10,-0.02,0.32,-0.38,38.03
10,-0.13,0.32,-0.38,41.67
10,-0.06,0.34,-0.29,41.67
10,-0.09,1.05,0.21,40.03
10,0.03,1.05,0.22,39.65
10,0.11,2.02,0.53,39.65
10,0.12,1.37,0.15,39.39
10,-0.07,1.37,0.18,38.93
10,-0.18,0.11,-0.44,38.93
10,-0.04,0.46,-0.25,38.91
10,-0.04,0.46,0.22,40.45
10,-0.00,1.22,0.22,40.45
10,0.02,2.07,0.49,40.85
10,0.02,2.11,0.03,41.21
10,-0.05,1.11,0.03,41.39
10,-0.19,0.03,-0.45,39.82
10,-0.19,0.49,-0.16,40.33
10,-0.01,0.49,-0.16,38.05
10,0.17,1.46,0.36,38.05
10,0.17,2.10,0.55,39.01
10,0.10,2.10,0.55,37.11
10,-0.04,0.89,-0.05,37.11
10,-0.04,-0.14,-0.46,37.73
10,-0.23,-0.14,-0.45,38.43
10,-0.03,0.57,-0.14,38.43
10,0.14,1.63,0.35,39.43
10,0.14,1.63,0.47,39.49
10,0.04,2.08,0.47,39.49
10,-0.10,0.75,-0.13,37.98
10,-0.10,0.75,-0.45,38.54
10,-0.17,-0.19,-0.45,38.36
10,0.02,0.74,-0.02,38.36
11,0.01,1.88,0.43,37.41
11,0.02,1.82,0.31,37.00
11,0.02,1.86,-0.29,40.39
11,-0.09,0.49,-0.29,40.21
11,-0.11,-0.04,-0.39,38.65
11,-0.11,0.90,0.11,38.63
11,0.02,0.90,0.11,37.18
11,0.17,1.91,0.51,37.18
11,0.17,1.65,0.28,39.69
11,-0.02,1.65,0.28,40.65
11,-0.11,0.37,-0.34,40.65
11,-0.07,0.23,-0.35,39.66
11,-0.07,0.23,-0.36,36.80
11,-0.06,0.99,0.14,36.80
11,0.09,2.01,0.49,40.19
11,0.09,2.01,0.16,38.56
11,-0.05,1.43,0.16,38.56
11,-0.14,0.23,-0.40,36.78
11,-0.14,0.23,-0.23,38.65
11,-0.03,0.38,-0.23,38.51
11,0.04,1.15,0.27,40.08
11,0.04,1.16,0.55,38.72
11,0.09,2.04,0.55,38.72
11,-0.03,1.26,0.10,39.50
11,-0.03,0.06,-0.43,39.99
11,-0.20,0.06,-0.43,37.84
11,-0.07,0.44,-0.23,37.84
11,-0.07,1.28,0.23,37.24
11,0.06,1.28,0.19,40.70
11,0.03,2.06,0.50,40.70
11,0.04,1.07,-0.01,41.37
11,-0.08,1.07,-0.02,39.72
11,-0.20,-0.01,-0.46,39.72
11,0.02,0.53,-0.14,40.58
11,0.02,0.53,0.38,38.05
11,0.25,1.56,0.38,38.05
11,0.07,2.06,0.55,38.91
11,0.07,2.04,-0.08,36.85
11,-0.08,0.85,-0.08,36.97
11,-0.21,-0.21,-0.48,40.10
11,-0.21,-0.23,-0.10,42.95
11,-0.07,0.65,-0.10,42.99
11,0.13,1.73,0.36,39.08
11,0.13,2.03,0.43,37.27
11,0.06,2.03,0.43,41.39
11,-0.09,0.67,-0.19,41.39
11,-0.09,-0.23,-0.45,38.06
11,-0.16,-0.23,-0.48,37.39
11,0.01,0.78,0.02,37.39
11,0.00,1.77,0.46,39.31
11,0.13,1.77,0.48,39.25
11,0.08,1.94,0.42,39.25
11,-0.11,0.60,-0.22,39.38
11,-0.11,0.60,-0.44,39.61
11,-0.16,-0.09,-0.44,39.61
11,-0.02,0.92,0.02,40.68
11,-0.02,0.94,0.46,38.43
11,0.02,1.94,0.46,38.34
11,-0.03,1.80,0.31,39.91
11,-0.03,1.80,-0.33,40.00
11,-0.08,0.43,-0.33,38.68
11,-0.07,0.06,-0.37,38.68
11,-0.07,0.96,0.14,39.16
11,0.02,0.96,0.14,39.26
11,0.15,1.96,0.53,39.26
11,0.15,1.57,0.25,38.96
11,-0.04,1.57,0.26,38.77
11,-0.13,0.27,-0.37,38.77
11,-0.12,0.31,-0.31,37.38
11,-0.12,0.31,0.17,37.95
11,-0.07,0.96,0.17,37.95
11,0.12,2.00,0.48,39.29
11,0.12,2.00,0.12,38.25
11,-0.05,1.39,0.12,38.04
11,-0.18,0.21,-0.40,41.17
11,-0.18,0.21,-0.22,38.27
11,-0.03,0.40,-0.22,37.81
11,0.10,1.22,0.27,40.16
11,0.10,2.05,0.56,38.51
11,0.10,2.05,0.56,38.10
11,-0.05,1.19,0.10,38.10
11,-0.05,-0.02,-0.46,37.83
11,-0.20,-0.02,-0.44,37.59
11,-0.06,0.52,-0.19,37.59
11,-0.02,1.43,0.24,38.56
11,0.11,1.43,0.24,37.41
11,0.02,2.10,0.49,37.41
11,-0.08,0.97,-0.05,42.22
11,-0.08,0.97,-0.46,40.53
11,-0.20,-0.08,-0.46,40.53
11,0.00,0.55,-0.12,40.94
11,0.00,0.51,0.37,38.92
11,0.19,1.58,0.37,38.32
11,0.09,2.06,0.52,39.89
11,0.09,2.11,-0.11,42.04
11,-0.07,0.79,-0.11,41.36
11,-0.22,-0.19,-0.47,41.36
11,-0.22,0.68,-0.09,41.64
11,-0.04,0.68,-0.09,37.12
11,0.07,1.72,0.39,37.12
11,0.10,2.04,0.45,39.23
11,0.04,2.04,0.47,38.57
11,-0.09,0.62,-0.22,38.57
11,-0.11,-0.23,-0.44,38.94
11,-0.11,-0.23,0.03,40.66
11,0.03,0.83,0.03,40.66
11,0.12,1.83,0.50,39.76
11,0.12,1.83,0.40,39.03
11,0.04,1.90,0.40,39.03
11,-0.09,0.53,-0.27,37.98
11,-0.09,0.51,-0.39,39.43
11,-0.16,0.01,-0.39,39.78
11,-0.00,0.92,0.03,39.00
11,-0.00,1.96,0.44,38.07
11,0.07,1.96,0.44,38.65
11,-0.02,1.73,0.27,38.65
11,-0.02,0.43,-0.32,39.86
11,-0.09,0.43,-0.32,40.58
11,-0.10,0.15,-0.35,40.58
11,-0.10,0.95,0.16,40.60
11,0.03,0.95,0.14,40.05
11,0.15,1.97,0.52,40.05
11,-0.05,1.51,0.22,41.24
11,-0.05,1.51,-0.39,39.15
11,-0.14,0.26,-0.39,39.15
11,-0.07,0.36,-0.30,37.81
11,-0.07,0.36,0.18,42.45
11,-0.06,1.08,0.18,42.69
11,0.04,2.03,0.49,40.34
11,0.04,2.03,0.10,40.43
11,-0.05,1.28,0.10,40.51
11,-0.16,0.13,-0.43,40.51
11,-0.16,0.41,-0.20,36.68
11,-0.03,0.41,-0.20,38.74
11,0.13,1.30,0.30,38.74
11,0.13,2.06,0.55,40.10
11,0.11,2.06,0.54,39.53
11,-0.01,1.09,0.04,39.53
11,-0.04,-0.04,-0.44,38.89
11,-0.23,-0.04,-0.45,40.30
11,-0.05,0.49,-0.20,40.30
11,0.17,1.49,0.30,40.38
11,0.17,1.49,0.50,37.48
11,0.03,2.08,0.50,37.48
11,-0.11,0.95,-0.06,37.79
11,-0.11,0.94,-0.47,38.94
11,-0.20,-0.12,-0.47,39.04
11,0.03,0.61,-0.09,39.82
11,0.03,0.61,0.43,38.75
11,0.14,1.61,0.43,38.02
11,0.04,2.08,0.50,38.02
11,0.04,0.76,-0.15,40.65
11,-0.07,0.76,-0.15,40.28
11,-0.19,-0.22,-0.47,40.28
11,-0.20,0.73,-0.08,39.84
11,-0.08,0.73,-0.12,39.03
11,0.03,1.77,0.38,39.03
11,0.06,1.96,0.41,36.36
11,0.06,1.96,-0.22,37.84
11,-0.08,0.58,-0.22,37.84
11,-0.14,-0.22,-0.42,39.41
11,-0.14,-0.22,0.06,42.56
11,0.03,0.85,0.06,42.56
11,0.16,1.83,0.49,40.76
11,0.16,1.82,0.36,36.95
11,0.07,1.82,0.36,37.19
11,-0.10,0.50,-0.28,39.54
11,-0.10,0.06,-0.40,38.29
11,-0.12,0.06,-0.40,39.91
11,-0.03,1.00,0.08,39.91
11,-0.03,1.99,0.49,39.25
11,0.07,1.99,0.49,40.52
11,-0.04,1.67,0.26,40.52
11,-0.03,0.36,-0.37,40.92
11,-0.09,0.36,-0.37,38.52
11,-0.05,0.23,-0.31,38.52
11,0.02,1.00,0.19,36.64
11,0.02,1.00,0.54,42.02
11,0.12,2.01,0.54,42.02
11,-0.04,1.46,0.18,39.31
11,-0.04,1.46,-0.41,42.00
11,-0.16,0.19,-0.41,42.07
11,-0.10,0.36,-0.30,38.15
11,-0.10,0.37,0.17,39.77
11,-0.06,1.06,0.17,39.49
11,0.07,2.04,0.47,42.62
11,0.07,1.28,0.10,38.51
11,-0.07,1.28,0.10,40.50
11,-0.19,0.11,-0.43,40.50
11,-0.19,0.43,-0.19,40.38
11,0.01,0.43,-0.13,37.47
11,0.16,1.36,0.31,37.47
11,0.16,2.09,0.57,38.97
11,0.10,2.09,0.57,38.53
11,-0.05,1.03,0.01,38.53
11,-0.21,-0.13,-0.46,38.40
11,-0.21,-0.13,-0.15,38.40
11,-0.07,0.56,-0.15,38.40
11,0.18,1.55,0.32,39.55
11,0.18,1.53,0.51,39.43
11,0.05,2.10,0.51,39.37
11,-0.09,0.84,-0.09,39.37
11,-0.09,0.86,-0.48,39.87
11,-0.20,-0.14,-0.48,40.81
11,0.01,0.64,-0.06,40.81
11,0.01,1.63,0.42,40.87
11,0.13,1.63,0.42,40.98
11,0.08,2.06,0.48,40.98
11,0.10,0.73,-0.17,39.28
11,-0.09,0.73,-0.16,38.20
11,-0.20,-0.20,-0.47,38.20
11,-0.23,0.78,-0.06,38.14
11,-0.04,0.78,0.44,39.41
11,0.02,1.82,0.44,39.41
11,0.01,1.96,0.40,39.95
11,0.01,1.96,-0.27,41.29
11,-0.07,0.53,-0.27,41.29
11,-0.07,-0.17,-0.41,39.30
11,-0.07,-0.14,0.08,42.74
11,0.03,0.86,0.08,42.46
11,0.14,1.91,0.52,39.32
11,0.14,1.76,0.34,39.08
11,0.02,1.76,0.34,37.63
11,-0.09,0.42,-0.30,37.63
11,-0.09,0.13,-0.37,37.84
11,-0.14,0.13,-0.37,39.49
11,-0.01,0.99,0.09,39.49
11,-0.00,2.01,0.49,37.21
11,0.12,2.01,0.49,38.57
11,-0.03,1.59,0.24,38.57
11,-0.12,0.36,-0.36,40.22
11,-0.12,0.36,-0.29,39.06
11,-0.08,0.27,-0.29,39.06
12,-0.05,1.16,0.20,40.33
12,0.04,2.07,0.51,40.33
12,-0.04,1.16,0.05,40.07
12,-0.04,1.16,-0.45,37.52
12,-0.19,0.04,-0.45,37.52
12,-0.02,0.44,-0.18,41.14
12,-0.02,0.44,0.33,38.19
12,0.19,1.40,0.33,37.74
12,0.11,2.06,0.55,38.52
12,0.11,2.10,-0.03,40.54
12,-0.04,0.98,-0.03,39.95
12,-0.25,-0.12,-0.46,42.30
12,-0.25,0.54,-0.15,38.05
12,-0.03,0.54,-0.15,40.12
12,0.22,1.61,0.35,40.12
12,0.22,2.08,0.49,38.65
12,0.03,2.08,0.45,38.58
12,-0.11,0.81,-0.11,38.58
12,-0.12,-0.22,-0.48,40.14
12,-0.18,-0.22,-0.47,41.08
12,0.02,0.70,-0.03,41.08
12,0.11,1.73,0.43,40.41
12,0.11,1.73,0.48,40.37
12,0.04,2.03,0.48,40.37
12,-0.07,0.67,-0.22,37.80
12,-0.07,0.68,-0.45,38.33
12,-0.17,-0.20,-0.45,39.04
12,-0.05,0.81,-0.04,39.04
12,-0.05,0.85,0.43,35.91
12,0.01,1.85,0.43,38.17
12,0.04,1.89,0.35,38.17
12,0.04,0.51,-0.27,36.48
12,-0.09,0.51,-0.27,37.95
12,-0.12,-0.14,-0.40,37.95
12,-0.09,0.90,0.09,37.89
12,0.04,0.90,0.07,38.60
12,0.16,1.89,0.51,38.60
12,0.14,1.72,0.32,39.33
12,0.01,1.72,-0.32,39.70
12,-0.11,0.40,-0.32,39.70
12,-0.10,0.18,-0.35,38.78
12,-0.10,0.18,0.13,40.17
12,-0.05,1.03,0.13,40.17
12,0.11,2.01,0.50,38.96
12,0.11,2.02,0.19,38.79
12,-0.03,1.52,0.19,38.59
12,-0.13,0.25,-0.40,37.02
12,-0.13,0.35,-0.25,41.21
12,-0.05,0.35,-0.25,38.64
12,0.02,1.07,0.23,38.64
12,0.02,2.03,0.53,39.67
12,0.11,2.03,0.53,38.45
12,-0.04,1.35,0.13,38.45
12,-0.02,0.08,-0.42,39.93
12,-0.21,0.08,-0.39,38.68
12,-0.05,0.40,-0.27,38.68
12,-0.04,1.17,0.24,40.07
12,-0.04,1.17,0.51,40.32
12,0.02,2.08,0.51,40.32
12,-0.08,1.16,0.03,42.25
12,-0.08,1.13,-0.46,37.06
12,-0.21,0.00,-0.46,37.07
12,0.01,0.49,-0.15,41.77
12,0.01,0.45,0.36,37.02
12,0.22,1.45,0.36,36.88
12,0.06,2.10,0.57,39.24
12,0.06,0.89,-0.06,40.87
12,-0.04,0.89,-0.06,38.55
12,-0.21,-0.20,-0.48,38.55
12,-0.20,0.57,-0.12,37.73
12,-0.07,0.57,-0.12,40.00
12,0.19,1.64,0.38,40.00
12,0.19,2.07,0.46,39.37
12,0.06,2.07,0.48,39.33
12,-0.09,0.74,-0.15,39.33
12,-0.18,-0.22,-0.46,39.37
12,-0.18,-0.22,-0.01,38.25
12,0.01,0.74,-0.01,38.25
12,0.12,1.73,0.44,40.72
12,0.12,1.69,0.45,39.06
12,0.09,2.01,0.45,38.64
12,-0.11,0.67,-0.21,40.20
12,-0.11,-0.14,-0.46,39.67
12,-0.17,-0.14,-0.46,38.20
12,-0.02,0.88,-0.01,38.20
12,-0.02,1.92,0.43,39.27
12,-0.01,1.92,0.43,39.85
12,-0.01,1.85,0.32,39.85
12,-0.00,0.46,-0.31,39.60
12,-0.06,0.46,-0.26,40.62
12,-0.07,-0.02,-0.39,40.62
12,0.04,0.92,0.11,38.82
12,0.04,0.92,0.52,38.84
12,0.15,1.98,0.52,38.84
12,-0.02,1.63,0.29,40.27
12,-0.02,1.63,-0.33,39.50
12,-0.13,0.33,-0.33,39.48
12,-0.12,0.21,-0.35,40.27
12,-0.12,0.20,0.13,39.98
12,-0.03,1.01,0.13,40.12
12,0.15,2.03,0.52,38.55
12,0.15,1.47,0.18,38.30
12,-0.05,1.47,0.18,38.80
12,-0.15,0.29,-0.40,38.80
12,-0.18,0.37,-0.25,39.91
12,-0.05,0.37,-0.24,38.76
12,0.07,1.12,0.26,38.76
12,0.09,2.05,0.56,38.70
12,0.09,2.05,0.62,38.33
12,-0.07,1.28,0.12,38.33
12,-0.19,0.04,-0.45,40.16
12,-0.19,0.04,-0.23,37.93
12,-0.07,0.46,-0.23,37.93
12,0.01,1.26,0.23,38.04
12,0.01,1.28,0.48,38.98
12,0.04,2.09,0.48,38.80
12,-0.05,1.06,-0.02,37.23
12,-0.05,1.02,-0.46,35.26
12,-0.20,-0.05,-0.46,36.94
12,-0.00,0.51,-0.15,36.94
12,-0.00,1.51,0.36,40.10
12,0.21,1.51,0.36,40.54
12,0.11,2.07,0.55,40.54
12,0.12,0.89,-0.05,40.94
12,-0.06,0.89,-0.05,40.18
12,-0.23,-0.19,-0.49,40.18
12,-0.02,0.61,-0.12,39.14
12,-0.02,0.61,0.39,39.81
12,0.20,1.72,0.39,39.81
12,0.03,2.06,0.47,37.98
12,0.03,2.06,-0.16,35.69
12,-0.07,0.70,-0.16,35.34
12,-0.15,-0.26,-0.46,38.47
12,-0.15,-0.29,0.00,40.93
12,0.01,0.77,0.00,40.68
12,0.10,1.77,0.48,42.24
12,0.10,1.98,0.45,39.81
12,0.05,1.98,0.45,41.76
12,-0.07,0.60,-0.23,41.76
12,-0.10,-0.11,-0.42,38.10
12,-0.16,-0.11,-0.38,39.83
12,-0.01,0.87,-0.01,39.83
12,-0.05,1.91,0.42,37.40
12,0.01,1.91,0.42,36.98
12,0.02,1.82,0.30,36.98
12,-0.08,0.48,-0.30,38.93
12,-0.08,0.48,-0.39,39.17
12,-0.10,-0.00,-0.39,39.17
12,0.03,0.93,0.14,37.80
12,0.03,0.89,0.52,37.21
12,0.16,1.95,0.52,37.37
12,-0.02,1.63,0.28,38.94
12,-0.02,1.63,-0.37,38.70
12,-0.13,0.32,-0.37,39.03
12,-0.10,0.29,-0.32,39.03
12,-0.10,1.02,0.15,36.72
12,-0.07,1.02,0.15,41.61
12,0.12,2.04,0.48,41.61
12,0.10,1.43,0.13,39.00
12,-0.02,1.43,0.16,37.10
12,-0.16,0.19,-0.40,37.10
12,-0.18,0.38,-0.23,37.55
12,-0.05,0.38,0.26,37.77
12,0.08,1.16,0.26,37.77
12,0.11,2.04,0.54,39.33
12,0.11,2.04,0.10,38.01
12,-0.03,1.23,0.10,38.01
12,-0.23,-0.00,-0.45,41.01
12,-0.23,-0.06,-0.24,40.63
12,-0.03,0.44,-0.24,40.02
12,0.03,1.26,0.26,37.67
12,0.03,2.11,0.50,41.43
12,0.02,2.11,0.50,39.27
12,-0.08,1.04,-0.03,39.27
12,-0.08,-0.09,-0.48,38.73
12,-0.22,-0.09,-0.45,36.32
12,0.01,0.54,-0.14,36.32
12,0.04,1.58,0.39,38.03
12,0.23,1.58,0.38,41.61
12,0.07,2.11,0.56,41.61
12,-0.05,0.82,-0.10,39.14
12,-0.05,0.82,-0.47,38.30
12,-0.20,-0.23,-0.47,38.30
12,-0.06,0.62,-0.12,39.97
12,-0.06,0.58,0.35,39.16
12,0.19,1.71,0.35,39.51
12,0.06,2.06,0.44,38.73
12,0.06,2.03,-0.17,36.84
12,-0.09,0.66,-0.17,37.07
12,-0.16,-0.25,-0.45,37.85
12,-0.16,0.80,0.01,37.81
12,0.02,0.80,0.01,42.58
12,0.10,1.79,0.47,42.58
12,0.07,1.95,0.43,39.65
12,0.07,1.95,0.39,38.70
12,-0.10,0.59,-0.24,38.70
12,-0.07,-0.05,-0.42,39.87
12,-0.13,-0.05,0.02,37.99
12,-0.03,0.93,0.02,37.99
12,-0.01,2.00,0.46,39.11
12,-0.01,2.00,0.29,40.20
12,-0.02,1.76,0.29,40.20
12,-0.07,0.40,-0.34,39.02
12,-0.07,0.42,-0.34,38.85
12,-0.07,0.11,-0.34,38.49
12,0.02,0.97,0.16,40.06
12,0.02,2.01,0.54,38.94
12,0.16,2.01,0.54,42.37
12,-0.02,1.54,0.23,42.37
12,-0.02,0.27,-0.37,38.63
12,-0.15,0.27,-0.37,38.89
12,-0.09,0.28,-0.33,38.89
12,-0.11,1.03,0.16,37.36
12,-0.05,1.03,0.14,39.36
12,0.13,2.07,0.51,39.36
12,-0.07,1.38,0.14,37.26
12,-0.07,1.38,-0.42,38.30
12,-0.17,0.19,-0.42,38.30
12,-0.01,0.40,-0.22,38.66
12,-0.01,0.38,0.31,38.00
12,0.06,1.19,0.31,37.89
12,0.09,2.09,0.57,40.24
12,0.09,2.09,0.08,38.66
12,-0.05,1.16,0.08,38.34
12,-0.21,-0.06,-0.45,37.56
12,-0.21,0.49,-0.20,40.58
12,-0.08,0.49,-0.20,40.08
12,0.07,1.34,0.27,40.08
12,0.11,2.09,0.49,37.48
12,0.05,2.09,0.45,39.27
12,-0.08,1.00,-0.05,39.27
12,-0.09,-0.10,-0.48,39.24
12,-0.22,-0.10,-0.49,39.53
13,-0.05,1.80,0.38,39.57
13,0.16,1.80,0.42,39.77
13,0.03,2.00,0.42,39.77
13,0.05,0.60,-0.22,39.09
13,-0.07,0.60,-0.19,40.59
13,-0.11,-0.28,-0.44,40.59
13,0.01,0.83,0.04,40.75
13,0.01,0.83,0.49,37.92
13,0.09,1.86,0.49,37.92
13,0.06,1.88,0.40,37.36
13,0.06,1.91,-0.27,38.97
13,-0.09,0.53,-0.27,38.84
13,-0.15,-0.03,-0.40,38.06
13,-0.15,0.93,0.04,37.40
13,0.00,0.93,0.04,39.15
13,0.00,1.99,0.45,39.15
13,0.00,1.75,0.29,39.57
13,-0.03,1.75,0.29,39.18
13,-0.10,0.43,-0.34,39.18
13,-0.06,0.14,-0.34,37.87
13,-0.06,0.14,-0.33,39.89
13,0.04,1.00,0.17,39.89
13,0.16,2.02,0.54,40.89
13,0.16,2.02,0.23,39.39
13,-0.06,1.53,0.23,39.39
13,-0.15,0.22,-0.40,37.72
13,-0.15,0.22,-0.29,40.15
13,-0.10,0.35,-0.29,40.07
13,-0.08,1.02,0.19,40.07
13,-0.08,1.05,0.51,38.19
13,0.11,2.05,0.51,38.29
13,-0.03,1.31,0.09,40.64
13,-0.03,0.12,-0.42,37.25
13,-0.19,0.12,-0.42,38.38
13,-0.02,0.41,-0.22,38.38
13,-0.02,1.27,0.30,39.74
13,0.13,1.27,0.31,38.37
13,0.11,2.05,0.56,38.37
13,0.09,1.12,0.06,37.10
13,-0.04,1.12,0.03,40.29
13,-0.23,-0.08,-0.47,40.29
13,-0.03,0.51,-0.20,36.99
13,-0.03,0.51,0.27,37.10
13,0.10,1.41,0.27,37.10
13,0.02,2.13,0.52,38.97
13,0.02,2.13,-0.07,37.87
13,-0.09,0.94,-0.07,37.86
13,-0.21,-0.17,-0.49,40.99
13,-0.21,-0.15,-0.10,40.16
13,0.01,0.60,-0.10,39.01
13,0.21,1.65,0.41,39.01
13,0.21,2.09,0.51,39.77
13,0.07,2.09,0.51,38.68
13,-0.06,0.75,-0.16,38.68
13,-0.02,-0.23,-0.47,40.54
13,-0.21,-0.23,-0.46,37.72
13,-0.05,0.68,-0.09,37.72
13,-0.05,1.78,0.41,41.49
13,0.14,1.78,0.43,40.13
13,0.05,2.01,0.43,40.13
13,-0.09,0.62,-0.23,37.57
13,-0.09,0.62,-0.45,38.86
13,-0.13,-0.24,-0.45,38.86
13,0.03,0.83,0.05,37.91
13,0.03,0.86,0.50,37.67
13,0.12,1.86,0.50,37.97
13,0.04,1.86,0.39,38.75
13,0.04,0.51,-0.29,38.44
13,-0.10,0.51,-0.29,41.19
13,-0.12,0.05,-0.38,41.19
13,-0.12,0.97,0.06,37.65
13,-0.02,0.97,0.06,37.05
13,0.02,2.03,0.47,37.05
13,0.04,1.68,0.24,38.75
13,-0.03,1.68,0.21,39.42
13,-0.11,0.37,-0.35,39.42
13,-0.08,0.21,-0.33,38.91
13,-0.08,0.21,0.17,38.71
13,0.01,0.97,0.17,38.71
13,0.14,2.02,0.54,36.89
13,0.14,2.02,0.20,37.89
13,-0.03,1.47,0.20,38.04
13,-0.19,0.20,-0.39,39.60
13,-0.19,0.20,-0.31,37.96
13,-0.08,0.33,-0.31,37.59
13,-0.07,1.06,0.23,39.16
13,-0.07,2.07,0.53,37.85
13,0.08,2.07,0.53,36.82
13,-0.08,1.27,0.09,36.82
13,-0.08,0.10,-0.45,36.82
13,-0.18,0.10,-0.44,37.86
13,0.01,0.43,-0.19,37.86
13,0.03,1.36,0.32,39.92
13,0.16,1.36,0.32,42.51
13,0.09,2.08,0.57,42.51
13,-0.03,1.04,0.01,41.34
13,-0.03,1.04,-0.45,35.43
13,-0.21,-0.11,-0.45,35.43
13,-0.06,0.50,-0.18,35.86
13,-0.06,0.49,0.31,40.33
13,0.19,1.49,0.31,40.66
13,0.06,2.09,0.50,42.22
13,0.06,2.12,-0.08,41.97
13,-0.09,0.93,-0.08,39.29
13,-0.21,-0.17,-0.48,39.29
13,-0.21,0.61,-0.08,38.25
13,0.03,0.61,-0.08,37.18
13,0.19,1.64,0.40,37.18
13,0.20,2.07,0.50,40.64
13,0.08,2.07,0.54,40.62
13,-0.09,0.77,-0.15,40.62
13,-0.07,-0.26,-0.48,38.22
13,-0.19,-0.26,-0.05,39.65
13,-0.07,0.77,-0.05,39.65
13,0.11,1.86,0.42,38.25
13,0.11,1.86,0.42,39.41
13,0.03,1.95,0.42,39.41
13,-0.06,0.56,-0.25,39.96
13,-0.06,0.51,-0.43,40.69
13,-0.11,-0.24,-0.43,40.71
13,0.02,0.85,0.07,38.36
13,0.02,1.88,0.50,37.33
13,0.11,1.88,0.50,39.62
13,0.06,1.80,0.35,39.62
13,0.06,0.48,-0.28,39.46
13,-0.10,0.48,-0.28,37.68
13,-0.13,0.06,-0.40,37.68
13,-0.18,1.00,0.07,38.71
13,0.01,1.00,0.10,40.15
13,0.06,2.03,0.48,40.15
13,-0.04,1.68,0.26,39.86
13,-0.04,1.68,-0.37,38.38
13,-0.11,0.37,-0.37,38.38
13,-0.06,0.21,-0.32,38.45
13,-0.06,0.21,0.18,39.42
13,0.03,0.99,0.18,39.23
13,0.10,2.01,0.54,38.44
13,0.10,2.03,0.19,40.30
13,-0.06,1.47,0.19,40.52
13,-0.17,0.15,-0.42,37.39
13,-0.17,0.39,-0.28,39.79
13,-0.11,0.39,-0.28,37.32
13,-0.06,1.05,0.18,37.32
13,-0.03,2.06,0.49,36.11
13,0.09,2.06,0.46,38.20
13,-0.05,1.25,0.08,38.20
13,-0.01,0.08,-0.44,39.20
13,-0.20,0.08,-0.45,41.53
13,-0.02,0.40,-0.20,41.53
13,0.16,1.33,0.32,41.04
13,0.16,1.33,0.57,39.66
13,0.10,2.09,0.57,39.66
13,-0.05,1.03,0.01,39.52
13,-0.05,1.03,-0.48,37.33
13,-0.23,-0.16,-0.48,36.89
13,-0.04,0.56,-0.16,38.45
13,-0.04,0.52,0.29,39.40
13,0.16,1.52,0.29,39.95
13,0.02,2.13,0.51,39.95
13,0.02,0.86,-0.10,39.06
13,-0.09,0.86,-0.10,38.27
13,-0.19,-0.21,-0.49,38.27
13,-0.19,0.63,-0.06,38.72
13,-0.00,0.63,-0.01,39.76
13,0.18,1.70,0.42,39.76
13,0.13,2.08,0.49,40.27
13,0.07,2.08,-0.18,39.75
13,-0.07,0.70,-0.18,39.75
13,-0.21,-0.21,-0.46,38.41
13,-0.21,-0.21,-0.06,36.64
13,-0.03,0.75,-0.06,36.64
13,0.08,1.81,0.40,39.65
13,0.08,1.85,0.42,40.03
13,0.03,1.97,0.42,40.50
13,-0.08,0.55,-0.26,38.94
13,-0.08,-0.21,-0.43,37.92
13,-0.09,-0.21,-0.43,37.45
13,0.04,0.86,0.08,37.45
13,0.04,1.92,0.52,38.80
13,0.12,1.92,0.52,39.48
13,0.02,1.79,0.36,39.48
13,0.03,0.43,-0.31,41.40
13,-0.09,0.43,-0.36,37.63
13,-0.11,0.11,-0.36,37.63
13,-0.01,0.98,0.08,40.46
13,-0.01,0.98,0.49,40.69
13,0.07,2.06,0.49,40.69
13,-0.02,1.60,0.23,39.21
13,-0.02,1.60,-0.38,40.95
13,-0.13,0.35,-0.38,40.74
13,-0.09,0.28,-0.30,37.60
13,-0.09,0.26,0.21,38.48
13,0.02,1.01,0.21,38.40
13,0.14,2.05,0.55,36.83
13,0.14,1.42,0.16,38.14
13,-0.05,1.42,0.16,39.07
13,-0.20,0.14,-0.43,39.07
13,-0.20,0.39,-0.28,42.44
13,-0.06,0.39,-0.28,39.08
13,-0.08,1.13,0.22,39.08
13,-0.07,2.13,0.51,37.25
13,0.06,2.13,0.51,38.67
13,-0.07,1.18,0.07,38.67
13,-0.20,0.02,-0.46,38.17
13,-0.20,0.02,-0.18,37.49
13,0.00,0.43,-0.18,37.49
13,0.15,1.38,0.33,40.41
13,0.15,1.42,0.56,40.62
13,0.08,2.10,0.56,40.31
13,-0.02,0.96,-0.03,37.96
13,-0.02,0.97,-0.46,35.70
13,-0.24,-0.16,-0.46,40.60
13,-0.05,0.51,-0.17,40.60
13,-0.05,1.55,0.35,39.00
13,0.22,1.55,0.35,40.27
13,0.06,2.10,0.50,40.27
13,0.09,0.86,-0.10,40.57
13,-0.10,0.86,-0.11,39.44
13,-0.21,-0.22,-0.49,39.44
13,-0.22,0.67,-0.06,39.31
13,0.03,0.67,0.46,40.08
13,0.17,1.70,0.46,40.08
13,0.05,2.06,0.49,38.36
13,0.05,2.06,-0.19,38.42
13,-0.08,0.72,-0.19,38.42
13,-0.17,-0.23,-0.47,39.58
13,-0.17,-0.25,-0.04,37.87
13,-0.08,0.82,-0.04,38.18
13,0.06,1.89,0.41,38.97
13,0.06,1.89,0.38,37.13
13,0.03,1.89,0.38,41.50
13,-0.06,0.52,-0.28,41.50
13,-0.06,-0.18,-0.42,40.58
14,0.00,1.04,0.11,39.24
14,0.00,2.07,0.51,36.73
14,0.07,2.07,0.51,38.48
14,-0.05,1.59,0.23,38.48
14,-0.05,0.29,-0.40,38.76
14,-0.13,0.29,-0.41,39.44
14,-0.05,0.32,-0.28,39.44
14,-0.05,1.06,0.23,40.23
14,0.01,1.06,0.24,37.94
14,0.12,2.07,0.55,37.94
14,-0.07,1.40,0.14,41.85
14,-0.07,1.40,-0.44,39.88
14,-0.20,0.07,-0.44,39.88
14,-0.09,0.39,-0.27,40.17
14,-0.09,0.41,0.18,39.08
14,-0.05,1.10,0.18,38.89
14,0.08,2.10,0.48,40.46
14,0.08,2.12,0.06,40.94
14,-0.06,1.18,0.06,41.17
14,-0.23,0.01,-0.46,39.60
14,-0.23,0.45,-0.17,39.84
14,0.01,0.45,-0.17,39.00
14,0.17,1.38,0.34,39.00
14,0.16,2.10,0.58,38.16
14,0.10,2.10,0.60,38.59
14,-0.05,0.96,-0.03,38.59
14,-0.03,-0.21,-0.50,38.34
14,-0.21,-0.21,-0.13,39.81
14,-0.06,0.59,-0.13,39.81
14,0.21,1.60,0.38,39.04
14,0.21,1.60,0.51,41.81
14,0.04,2.11,0.51,41.81
14,-0.08,0.78,-0.14,38.70
14,-0.08,0.81,-0.48,42.19
14,-0.18,-0.25,-0.48,41.77
14,-0.00,0.69,-0.03,39.42
14,-0.00,1.72,0.46,37.34
14,0.14,1.72,0.46,37.87
14,0.08,2.06,0.47,37.87
14,0.08,0.68,-0.19,38.70
14,-0.09,0.68,-0.19,38.22
14,-0.20,-0.19,-0.47,38.22
14,-0.22,0.81,-0.03,37.63
14,-0.03,0.81,-0.05,38.86
14,0.03,1.90,0.45,38.86
14,0.01,1.91,0.36,37.18
14,0.01,1.91,-0.30,36.06
14,-0.08,0.50,-0.30,36.06
14,-0.08,-0.12,-0.41,38.36
14,-0.08,-0.12,0.11,39.13
14,0.05,0.90,0.11,39.27
14,0.13,1.98,0.53,39.27
14,0.13,1.96,0.32,36.31
14,-0.02,1.71,0.32,36.65
14,-0.11,0.36,-0.33,40.57
14,-0.11,0.19,-0.35,39.09
14,-0.12,0.19,-0.35,39.25
14,0.00,1.03,0.12,39.25
14,0.00,2.09,0.50,41.11
14,0.10,2.09,0.52,36.51
14,-0.02,1.53,0.21,36.51
14,-0.04,0.30,-0.38,39.61
14,-0.16,0.30,-0.41,39.69
14,-0.09,0.32,-0.29,39.69
14,0.04,1.05,0.25,39.44
14,0.04,1.05,0.56,37.04
14,0.13,2.06,0.56,37.04
14,-0.06,1.38,0.13,37.89
14,-0.06,1.39,-0.45,38.62
14,-0.20,0.08,-0.45,38.60
14,-0.05,0.42,-0.27,38.60
14,-0.05,0.42,0.21,36.63
14,-0.05,1.17,0.21,38.49
14,0.04,2.11,0.50,38.49
14,0.04,1.11,0.02,41.04
14,-0.06,1.11,0.02,37.86
14,-0.21,-0.03,-0.46,37.86
14,-0.19,0.47,-0.17,35.66
14,-0.01,0.47,-0.14,38.46
14,0.20,1.45,0.36,38.46
14,0.22,2.08,0.56,40.13
14,0.10,2.08,-0.05,38.49
14,-0.04,0.92,-0.05,38.49
14,-0.25,-0.18,-0.47,40.71
14,-0.25,-0.18,-0.15,39.42
14,-0.04,0.55,-0.15,39.38
14,0.24,1.64,0.32,38.59
14,0.24,1.66,0.50,41.70
14,0.05,2.09,0.50,41.64
14,-0.10,0.79,-0.13,41.64
14,-0.10,-0.26,-0.49,40.87
14,-0.17,-0.26,-0.49,40.71
14,0.03,0.71,-0.03,40.71
14,0.03,1.76,0.46,36.45
14,0.11,1.76,0.48,38.34
14,0.04,2.05,0.48,38.34
14,0.04,0.66,-0.21,40.98
14,-0.08,0.66,-0.20,40.40
14,-0.16,-0.19,-0.45,40.40
14,-0.06,0.83,-0.02,37.94
14,-0.06,0.83,0.44,40.31
14,0.04,1.91,0.44,40.31
14,0.03,1.87,0.32,38.81
14,0.03,1.82,-0.28,37.82
14,-0.08,0.51,-0.28,38.07
14,-0.10,-0.12,-0.39,38.85
14,-0.10,-0.10,0.10,37.18
14,0.05,0.90,0.10,37.44
14,0.15,1.94,0.51,38.23
14,0.15,1.70,0.30,37.66
14,0.01,1.70,0.30,39.31
14,-0.13,0.38,-0.33,39.31
14,-0.16,0.19,-0.35,39.14
14,-0.09,0.19,-0.37,38.15
14,-0.02,1.06,0.13,38.15
14,-0.05,2.09,0.49,40.40
14,0.07,2.09,0.21,38.09
14,-0.05,1.53,0.21,38.09
14,-0.14,0.24,-0.41,39.80
14,-0.14,0.24,-0.26,37.07
14,-0.05,0.36,-0.26,37.07
14,0.02,1.08,0.25,42.68
14,0.02,1.07,0.56,38.16
14,0.11,2.07,0.56,37.89
14,-0.06,1.32,0.13,37.89
14,-0.06,0.04,-0.44,37.94
14,-0.21,0.04,-0.44,36.95
14,-0.07,0.39,-0.26,36.95
14,-0.07,1.13,0.21,37.65
14,-0.04,1.13,0.21,40.52
14,0.07,2.10,0.49,40.52
14,0.12,1.13,0.02,39.53
14,-0.07,1.13,0.02,38.61
14,-0.24,-0.03,-0.48,38.61
14,0.01,0.48,-0.16,41.70
14,0.01,0.48,0.36,39.43
14,0.24,1.50,0.36,39.43
14,0.09,2.11,0.58,38.37
14,0.09,2.11,-0.05,38.54
14,-0.05,0.90,-0.05,38.87
14,-0.20,-0.24,-0.50,38.08
14,-0.20,-0.22,-0.12,38.59
14,-0.07,0.59,-0.12,38.83
14,0.22,1.65,0.35,41.18
14,0.22,2.10,0.49,39.83
14,0.06,2.10,0.49,37.75
14,-0.08,0.72,-0.16,37.75
14,-0.08,-0.28,-0.48,37.59
14,-0.16,-0.28,-0.46,39.17
14,-0.00,0.72,-0.02,39.17
14,-0.06,1.76,0.46,41.36
14,0.13,1.76,0.47,40.21
14,0.09,2.03,0.47,40.21
14,-0.10,0.64,-0.21,39.15
14,-0.10,0.64,-0.47,40.02
14,-0.17,-0.16,-0.47,40.02
14,-0.04,0.84,-0.02,38.83
14,-0.04,0.86,0.48,40.13
14,0.02,1.92,0.48,40.10
14,0.00,1.89,0.33,38.54
14,0.00,1.91,-0.32,39.76
14,-0.07,0.47,-0.32,37.45
14,-0.06,-0.07,-0.39,37.45
14,-0.06,0.93,0.12,36.11
14,0.04,0.93,0.12,40.62
14,0.15,2.01,0.54,40.62
14,0.16,1.67,0.30,40.94
14,-0.03,1.67,0.27,41.48
14,-0.13,0.32,-0.36,41.48
14,-0.18,0.21,-0.34,39.82
14,-0.12,0.21,0.12,38.94
14,0.01,1.05,0.12,38.94
14,0.11,2.11,0.49,37.47
14,0.11,2.11,0.19,38.03
14,-0.03,1.49,0.19,38.20
14,-0.17,0.27,-0.39,39.77
14,-0.17,0.28,-0.27,40.80
14,-0.06,0.34,-0.27,40.80
14,0.03,1.07,0.23,37.67
14,0.03,2.08,0.56,37.00
14,0.12,2.08,0.56,39.82
14,-0.07,1.32,0.13,39.82
14,-0.07,0.01,-0.47,40.38
14,-0.21,0.01,-0.47,39.29
14,-0.07,0.44,-0.25,39.29
14,-0.11,1.20,0.24,37.10
14,-0.05,1.20,0.24,37.25
14,0.05,2.12,0.49,37.25
14,-0.05,1.07,-0.02,39.13
14,-0.05,1.07,-0.47,39.31
14,-0.22,-0.08,-0.47,39.31
14,0.01,0.48,-0.15,40.75
14,0.01,0.46,0.37,38.21
14,0.25,1.52,0.37,38.25
14,0.10,2.08,0.56,39.82
14,0.10,2.08,-0.06,37.80
14,-0.05,0.89,-0.06,37.54
14,-0.25,-0.22,-0.50,42.24
14,-0.25,0.59,-0.12,40.32
14,-0.02,0.59,-0.12,37.22
14,0.25,1.69,0.35,37.22
14,0.23,2.09,0.48,40.15
14,0.04,2.09,0.46,39.66
14,-0.08,0.75,-0.16,39.66
14,-0.09,-0.30,-0.48,38.71
14,-0.15,-0.30,-0.45,37.73
14,0.02,0.74,-0.01,37.73
14,0.10,1.80,0.49,39.36
14,0.10,1.80,0.47,38.22
14,0.05,2.01,0.47,38.22
14,-0.08,0.61,-0.24,38.35
14,-0.08,0.59,-0.45,40.44
14,-0.16,-0.16,-0.45,40.61
14,-0.04,0.84,-0.01,36.69
14,-0.04,1.94,0.44,37.45
14,0.04,1.94,0.44,38.21
14,0.03,1.83,0.32,38.21
14,0.03,0.47,-0.31,40.51
14,-0.09,0.47,-0.31,36.52
14,-0.09,-0.07,-0.38,36.52
14,-0.07,0.95,0.12,36.96
14,0.05,0.95,0.09,40.56
14,0.17,1.98,0.53,40.56
14,-0.01,1.67,0.29,36.28
14,-0.01,1.67,-0.35,37.84
14,-0.15,0.32,-0.35,37.84
14,-0.09,0.24,-0.34,36.91
14,-0.09,0.24,0.16,37.24
14,-0.01,1.10,0.16,37.21
14,0.08,2.12,0.51,38.77
14,0.08,2.10,0.18,38.17
14,-0.04,1.47,0.18,37.61
14,-0.17,0.19,-0.42,40.75
15,-0.05,0.41,-0.25,36.16
15,-0.03,1.16,0.25,35.99
15,-0.03,1.13,0.51,39.68
15,0.05,2.13,0.51,39.28
15,-0.08,1.09,-0.01,42.41
15,-0.08,-0.09,-0.49,36.51
15,-0.23,-0.09,-0.49,40.52
15,0.03,0.51,-0.15,40.52
15,0.06,1.56,0.39,37.76
15,0.25,1.56,0.40,36.77
15,0.07,2.12,0.59,36.77
15,0.07,0.85,-0.08,37.68
15,-0.05,0.85,-0.11,41.64
15,-0.20,-0.27,-0.49,41.64
15,-0.07,0.60,-0.12,40.41
15,-0.07,0.60,0.37,38.49
15,0.24,1.70,0.37,38.49
15,0.06,2.08,0.48,40.16
15,0.06,2.07,-0.17,37.85
15,-0.07,0.70,-0.17,38.17
15,-0.16,-0.29,-0.46,39.73
15,-0.16,-0.26,-0.00,39.91
15,0.01,0.74,-0.00,38.56
15,0.13,1.78,0.45,38.56
15,0.13,2.01,0.46,39.08
15,0.07,2.01,0.46,40.08
15,-0.11,0.64,-0.23,40.08
15,-0.08,-0.12,-0.45,38.43
15,-0.15,-0.12,-0.50,37.75
15,-0.03,0.88,0.00,37.75
15,0.00,1.98,0.49,38.74
15,0.00,1.98,0.31,40.17
15,-0.00,1.82,0.31,40.17
15,-0.07,0.44,-0.34,39.98
15,-0.07,0.44,-0.38,37.38
15,-0.06,0.03,-0.38,37.21
15,0.05,0.96,0.13,37.21
15,0.05,0.97,0.53,39.80
15,0.15,2.03,0.53,39.39
15,-0.02,1.61,0.26,38.61
15,-0.02,0.28,-0.36,37.16
15,-0.15,0.28,-0.36,38.26
15,-0.11,0.24,-0.33,38.26
15,-0.11,1.08,0.14,41.93
15,0.01,1.08,0.13,40.80
15,0.11,2.13,0.50,40.80
15,0.08,1.45,0.17,39.10
15,-0.05,1.45,0.15,38.08
15,-0.19,0.23,-0.41,38.08
15,-0.05,0.36,-0.26,36.07
15,-0.05,0.36,0.25,37.22
15,0.05,1.11,0.25,37.22
15,0.11,2.10,0.57,39.60
15,0.11,2.08,0.12,38.73
15,-0.07,1.27,0.12,38.70
15,-0.21,-0.02,-0.47,42.61
15,-0.21,-0.03,-0.22,38.69
15,-0.08,0.47,-0.22,38.98
15,-0.03,1.22,0.27,38.98
15,-0.03,2.11,0.50,40.71
15,0.04,2.11,0.50,38.56
15,-0.06,1.04,-0.04,38.56
15,-0.04,-0.10,-0.48,38.94
15,-0.22,-0.10,-0.45,38.64
15,-0.01,0.49,-0.14,38.64
15,-0.00,1.55,0.37,38.75
15,0.25,1.55,0.55,39.02
15,0.11,2.08,0.55,39.02
15,-0.07,0.87,-0.07,39.27
15,-0.07,0.87,-0.50,41.09
15,-0.24,-0.24,-0.50,41.09
15,-0.03,0.62,-0.11,38.25
15,-0.03,0.62,0.36,40.00
15,0.25,1.75,0.36,40.44
15,0.03,2.08,0.46,36.52
15,0.03,0.69,-0.19,41.75
15,-0.07,0.69,-0.19,39.26
15,-0.13,-0.33,-0.45,39.26
15,-0.13,0.77,0.02,37.98
15,0.01,0.77,0.02,39.89
15,0.09,1.82,0.48,39.89
15,0.12,1.98,0.44,39.30
15,0.05,1.98,0.44,37.02
15,-0.08,0.57,-0.25,37.02
15,-0.16,-0.12,-0.45,39.19
15,-0.16,-0.12,-0.01,39.91
15,-0.01,0.86,-0.01,39.91
15,0.02,1.96,0.47,38.41
15,0.02,1.94,0.29,42.06
15,0.01,1.82,0.29,41.79
15,-0.09,0.48,-0.31,37.09
15,-0.09,0.48,-0.39,40.38
15,-0.09,-0.02,-0.39,40.41
15,0.05,0.95,0.13,39.62
15,0.05,2.01,0.54,41.23
15,0.16,2.01,0.54,40.31
15,-0.03,1.64,0.29,40.31
15,-0.02,0.29,-0.37,38.34
15,-0.15,0.29,-0.32,38.20
15,-0.10,0.26,-0.32,38.20
15,-0.08,1.11,0.15,35.07
15,-0.02,1.11,0.17,41.78
15,0.10,2.14,0.49,41.78
15,-0.03,1.43,0.17,38.59
15,-0.03,1.43,-0.41,38.54
15,-0.18,0.17,-0.41,38.54
15,-0.06,0.38,-0.25,41.32
15,-0.06,0.39,0.27,38.84
15,0.06,1.14,0.27,38.88
15,0.12,2.07,0.56,38.10
15,0.12,2.08,0.11,40.61
15,-0.04,1.26,0.11,39.86
15,-0.24,-0.02,-0.46,39.86
15,-0.24,0.44,-0.24,37.80
15,-0.03,0.44,-0.24,38.86
15,-0.03,1.20,0.25,38.86
15,-0.03,2.15,0.51,37.73
15,0.03,2.15,0.53,37.83
15,-0.08,1.05,-0.03,37.83
15,-0.24,-0.13,-0.50,37.27
15,-0.24,-0.13,-0.13,39.52
15,0.01,0.52,-0.13,39.52
15,0.23,1.56,0.39,37.60
15,0.23,1.56,0.57,39.68
15,0.07,2.13,0.57,39.77
15,-0.04,0.82,-0.10,39.77
15,-0.04,0.87,-0.48,39.99
15,-0.21,-0.26,-0.48,40.11
15,-0.05,0.59,-0.12,38.54
15,-0.05,1.70,0.38,38.08
15,0.26,1.70,0.38,36.87
15,0.06,2.08,0.48,36.87
15,0.05,0.69,-0.19,37.21
15,-0.08,0.69,-0.22,42.59
15,-0.16,-0.30,-0.47,42.59
15,-0.16,0.76,0.01,41.36
15,0.03,0.76,0.05,39.35
15,0.12,1.80,0.49,39.35
15,0.07,2.00,0.45,41.72
15,0.07,2.00,-0.24,36.47
15,-0.11,0.60,-0.24,36.47
15,-0.13,-0.10,-0.44,35.00
15,-0.13,-0.11,0.01,36.79
15,-0.03,0.89,0.01,37.47
15,-0.01,1.98,0.50,40.61
15,-0.01,1.98,0.29,39.48
15,-0.00,1.79,0.29,38.55
15,-0.08,0.41,-0.34,38.55
15,-0.08,0.04,-0.36,40.94
15,-0.08,0.04,-0.36,40.63
15,0.04,0.96,0.13,40.63
15,0.03,2.03,0.53,37.56
15,0.15,2.03,0.50,36.79
15,-0.02,1.59,0.25,36.79
15,-0.16,0.27,-0.36,38.59
15,-0.16,0.27,-0.34,37.98
15,-0.10,0.23,-0.34,37.98
15,0.02,1.11,0.15,39.65
15,0.02,1.11,0.51,37.62
15,0.09,2.17,0.51,37.80
15,-0.06,1.43,0.16,37.80
15,-0.06,1.43,-0.43,39.08
15,-0.18,0.18,-0.43,38.36
15,-0.03,0.37,-0.25,37.58
15,-0.03,1.14,0.28,37.19
15,0.04,1.14,0.28,37.07
15,0.10,2.11,0.57,37.07
15,0.07,1.23,0.10,39.25
15,-0.06,1.23,0.10,38.53
15,-0.21,-0.06,-0.46,38.53
15,-0.21,0.44,-0.23,41.57
15,-0.09,0.44,-0.25,39.50
15,-0.02,1.22,0.25,39.50
15,0.05,2.12,0.47,39.76
15,0.05,2.12,-0.04,39.87
15,-0.06,1.03,-0.04,39.87
15,-0.23,-0.12,-0.49,36.82
15,-0.23,-0.12,-0.13,37.74
15,0.00,0.51,-0.13,37.76
15,0.27,1.60,0.39,40.11
15,0.27,1.58,0.56,38.18
15,0.10,2.08,0.56,38.09
15,-0.08,0.86,-0.08,38.09
15,-0.08,-0.27,-0.51,37.66
15,-0.22,-0.27,-0.51,39.81
15,-0.04,0.66,-0.09,39.81
15,-0.06,1.76,0.39,37.93
15,0.25,1.76,0.41,37.28
15,0.04,2.05,0.47,37.28
15,-0.06,0.67,-0.21,37.11
15,-0.06,0.67,-0.47,40.99
15,-0.13,-0.35,-0.47,40.99
15,-0.00,0.78,0.03,37.95
15,-0.00,0.78,0.49,38.31
15,0.09,1.85,0.49,37.83
15,0.08,1.94,0.44,37.04
15,0.08,1.95,-0.25,40.41
15,-0.09,0.58,-0.25,40.60
15,-0.16,-0.10,-0.44,38.25
15,-0.16,0.88,0.01,39.92
15,-0.02,0.88,0.01,37.65
15,0.01,1.96,0.50,37.65
15,0.01,1.82,0.29,42.11
15,-0.01,1.82,0.29,39.30
15,-0.09,0.45,-0.33,39.30
15,-0.07,0.03,-0.38,40.06
15,-0.07,0.03,-0.43,39.79
15,0.06,1.00,0.14,39.79
15,0.16,2.02,0.55,40.16
15,0.16,2.02,0.27,38.44
15,-0.05,1.60,0.27,38.44
15,-0.16,0.24,-0.40,39.63
15,-0.16,0.23,-0.31,36.25
15,-0.12,0.29,-0.31,36.72
15,-0.01,1.13,0.16,40.64
15,-0.01,1.16,0.49,41.70
15,0.10,2.16,0.49,41.47
15,-0.03,1.42,0.15,37.56
15,-0.03,0.13,-0.42,37.58
15,-0.19,0.13,-0.42,38.49
15,-0.05,0.37,-0.25,38.49
15,-0.04,1.16,0.28,39.49
15,0.08,1.16,0.25,39.29
15,0.12,2.08,0.57,39.29
15,0.08,1.23,0.11,38.84
15,-0.05,1.23,0.08,38.35
15,-0.24,-0.05,-0.48,38.35
15,-0.04,0.48,-0.22,38.67
15,-0.04,0.48,0.25,38.70
15,-0.03,1.23,0.25,38.70
15,0.03,2.16,0.50,38.79
15,0.03,2.14,-0.04,36.69
15,-0.08,1.01,-0.04,35.98
16,-0.22,-0.27,-0.11,38.24
16,-0.05,0.60,-0.11,38.12
16,0.27,1.72,0.35,38.12
16,0.27,1.70,0.46,38.97
16,0.05,2.08,0.46,38.35
16,-0.09,0.69,-0.19,36.78
16,-0.09,-0.31,-0.46,37.85
16,-0.14,-0.31,-0.46,38.15
16,0.03,0.77,0.02,38.15
16,0.03,1.82,0.49,39.63
16,0.13,1.82,0.44,41.34
16,0.05,1.98,0.44,41.34
16,0.02,0.58,-0.26,38.87
16,-0.10,0.58,-0.29,36.98
16,-0.13,-0.08,-0.42,36.98
16,-0.03,0.91,0.02,37.37
16,-0.03,0.91,0.47,36.99
16,-0.02,2.02,0.47,36.99
16,0.00,1.76,0.29,39.30
16,0.00,1.79,-0.34,40.29
16,-0.11,0.41,-0.34,40.62
16,-0.09,0.08,-0.38,37.49
16,-0.09,0.09,0.15,40.12
16,0.03,0.97,0.15,38.58
16,0.17,2.02,0.54,38.58
16,0.17,1.59,0.26,38.77
16,-0.01,1.59,0.26,39.15
16,-0.17,0.27,-0.38,39.15
16,-0.15,0.24,-0.35,36.03
16,-0.09,0.24,-0.34,39.31
16,0.02,1.15,0.16,39.31
16,0.04,2.18,0.51,38.56
16,0.10,2.18,0.16,39.15
16,-0.06,1.40,0.16,39.15
16,-0.19,0.15,-0.43,38.56
16,-0.19,0.15,-0.24,40.42
16,-0.02,0.38,-0.24,40.28
16,0.04,1.17,0.28,39.50
16,0.04,1.18,0.57,38.94
16,0.09,2.11,0.57,38.62
16,-0.04,1.20,0.09,37.84
16,-0.04,-0.07,-0.45,39.57
16,-0.23,-0.07,-0.45,39.87
16,-0.08,0.45,-0.23,39.87
16,-0.08,1.20,0.28,40.80
16,-0.03,1.20,0.26,37.42
16,0.05,2.12,0.51,37.42
16,0.06,1.03,-0.04,36.34
16,-0.07,1.03,-0.05,38.99
16,-0.23,-0.15,-0.49,38.99
16,0.01,0.51,-0.14,37.89
16,0.01,0.51,0.40,39.06
16,0.26,1.60,0.40,39.06
16,0.09,2.09,0.56,37.07
16,0.09,2.10,-0.10,38.62
16,-0.07,0.85,-0.10,38.42
16,-0.21,-0.30,-0.50,36.85
16,-0.21,-0.27,-0.10,35.29
16,-0.06,0.66,-0.10,40.19
16,0.26,1.75,0.38,40.19
16,0.26,2.05,0.47,38.98
16,0.04,2.05,0.47,37.38
16,-0.05,0.67,-0.21,37.38
16,-0.05,-0.34,-0.46,39.30
16,-0.11,-0.34,-0.47,39.20
16,0.01,0.77,0.03,39.20
16,0.03,1.84,0.48,38.44
16,0.10,1.84,0.44,35.65
16,0.08,1.97,0.44,35.65
16,-0.10,0.59,-0.24,37.44
16,-0.10,0.59,-0.44,37.56
16,-0.15,-0.09,-0.44,37.56
16,-0.01,0.90,0.02,42.10
16,-0.01,0.92,0.49,38.47
16,0.03,1.99,0.49,38.32
16,-0.01,1.80,0.30,38.32
16,-0.01,0.44,-0.33,39.83
16,-0.10,0.44,-0.33,38.94
16,-0.06,0.05,-0.38,38.94
16,-0.06,0.99,0.15,36.68
16,0.05,0.99,0.18,37.08
16,0.16,2.04,0.55,37.08
16,0.15,1.61,0.27,39.09
16,-0.04,1.61,0.30,40.24
16,-0.16,0.24,-0.39,40.24
16,-0.14,0.27,-0.31,39.60
16,-0.14,0.27,0.16,38.11
16,0.01,1.10,0.16,38.11
16,0.10,2.16,0.49,38.52
16,0.10,2.18,0.14,39.65
16,-0.02,1.43,0.14,39.12
16,-0.20,0.14,-0.42,40.68
16,-0.20,0.17,-0.25,37.61
16,-0.03,0.36,-0.25,38.20
16,0.09,1.17,0.28,37.41
16,0.09,2.08,0.57,38.30
16,0.12,2.08,0.57,41.23
16,-0.07,1.24,0.10,41.23
16,-0.11,-0.09,-0.49,41.10
16,-0.24,-0.09,-0.46,39.61
16,-0.05,0.49,-0.21,39.61
16,-0.05,1.22,0.23,38.78
16,-0.05,1.22,0.24,38.07
16,0.04,2.18,0.49,38.07
16,-0.08,0.99,-0.05,36.86
16,-0.08,0.99,-0.50,38.04
16,-0.22,-0.17,-0.50,38.04
16,-0.01,0.53,-0.13,37.18
16,-0.01,0.51,0.39,39.31
16,0.24,1.58,0.39,39.35
16,0.08,2.11,0.56,41.70
16,0.08,0.83,-0.11,39.32
16,-0.04,0.83,-0.11,38.04
16,-0.21,-0.29,-0.49,38.04
16,-0.21,0.63,-0.11,40.80
16,-0.04,0.63,-0.11,39.00
16,0.28,1.73,0.36,39.00
16,0.30,2.09,0.47,39.50
16,0.05,2.09,0.49,37.58
16,-0.07,0.67,-0.20,37.58
16,-0.11,-0.34,-0.46,38.70
16,-0.11,-0.34,0.01,39.82
16,0.02,0.78,0.01,39.82
16,0.11,1.85,0.49,38.60
16,0.11,1.85,0.44,38.94
16,0.05,1.97,0.44,38.36
16,-0.10,0.57,-0.27,39.14
16,-0.10,0.62,-0.42,42.21
16,-0.14,-0.07,-0.42,41.45
16,-0.03,0.88,0.01,39.10
16,-0.03,2.02,0.48,40.67
16,0.03,2.02,0.48,38.90
16,0.01,1.78,0.29,38.90
16,0.01,0.43,-0.34,38.53
16,-0.11,0.43,-0.32,39.21
16,-0.09,0.07,-0.39,39.21
16,-0.12,0.98,0.14,37.07
16,0.07,0.98,0.16,39.58
16,0.16,2.05,0.54,39.58
16,-0.03,1.59,0.26,37.34
16,-0.03,1.59,-0.39,37.02
16,-0.18,0.28,-0.39,37.02
16,-0.08,0.27,-0.33,40.14
16,-0.08,0.28,0.18,38.50
16,0.01,1.16,0.18,38.77
16,0.06,2.22,0.53,36.42
16,0.06,2.20,0.14,39.82
16,-0.04,1.39,0.14,39.14
16,-0.19,0.14,-0.43,38.36
16,-0.19,0.38,-0.24,39.58
16,-0.03,0.38,-0.24,38.49
16,0.05,1.16,0.30,38.49
16,0.04,2.11,0.57,37.21
16,0.10,2.11,0.58,40.97
16,-0.03,1.19,0.08,40.97
16,-0.05,-0.06,-0.45,38.95
16,-0.24,-0.06,-0.23,38.40
16,-0.05,0.44,-0.23,38.40
16,-0.03,1.20,0.25,39.13
16,-0.03,1.20,0.49,39.26
16,0.06,2.14,0.49,39.26
16,-0.09,1.02,-0.05,38.26
16,-0.09,1.02,-0.50,38.97
16,-0.24,-0.16,-0.50,38.82
16,0.01,0.52,-0.13,38.04
16,0.01,1.64,0.40,38.28
16,0.23,1.64,0.40,36.18
16,0.08,2.12,0.57,36.18
16,0.08,0.83,-0.10,38.72
16,-0.07,0.83,-0.10,40.24
16,-0.19,-0.32,-0.50,40.24
16,-0.25,0.66,-0.09,40.26
16,-0.06,0.66,-0.10,39.45
16,0.27,1.72,0.40,39.45
16,0.06,2.06,0.46,38.70
16,0.06,2.06,-0.21,39.25
16,-0.06,0.67,-0.21,39.25
16,-0.13,-0.34,-0.46,39.88
16,-0.13,-0.36,0.03,37.28
16,0.01,0.77,0.03,36.95
16,0.09,1.84,0.48,36.95
16,0.09,1.85,0.43,39.30
16,0.09,1.98,0.43,39.26
16,-0.11,0.58,-0.25,39.26
16,-0.11,-0.11,-0.44,39.92
16,-0.14,-0.11,-0.44,37.95
16,-0.03,0.92,0.03,37.95
16,-0.04,2.01,0.49,38.67
16,0.02,2.01,0.48,38.69
16,-0.02,1.81,0.30,38.69
16,-0.05,0.39,-0.35,38.29
16,-0.12,0.39,-0.32,38.28
16,-0.04,0.06,-0.38,38.28
16,0.05,0.99,0.17,37.53
16,0.05,0.99,0.56,39.74
16,0.16,2.03,0.56,39.74
16,-0.03,1.62,0.26,39.74
16,-0.03,1.61,-0.40,39.72
16,-0.17,0.24,-0.40,39.69
16,-0.13,0.25,-0.33,36.56
16,-0.13,1.12,0.16,39.61
16,0.03,1.12,0.16,38.52
16,0.10,2.16,0.53,38.52
16,0.10,1.42,0.14,38.73
16,-0.04,1.42,0.14,40.16
16,-0.21,0.13,-0.43,40.16
16,-0.21,0.36,-0.25,40.09
16,-0.03,0.36,-0.29,39.87
16,0.12,1.19,0.28,39.87
16,0.09,2.09,0.57,38.85
16,0.09,2.09,0.10,39.33
16,-0.07,1.22,0.10,39.33
16,-0.23,-0.08,-0.49,37.99
16,-0.23,-0.12,-0.21,39.91
16,-0.06,0.50,-0.21,40.09
16,-0.04,1.23,0.23,40.87
16,-0.04,1.22,0.49,38.43
16,0.04,2.16,0.49,38.42
16,-0.06,0.99,-0.05,39.98
16,-0.06,-0.16,-0.49,38.25
16,-0.22,-0.16,-0.49,41.09
16,-0.00,0.51,-0.13,41.09
16,-0.01,1.58,0.39,38.81
16,0.24,1.58,0.43,38.79
16,0.10,2.11,0.56,38.79
16,0.07,0.81,-0.11,39.49
16,-0.06,0.81,-0.50,40.54
16,-0.21,-0.28,-0.50,40.54
16,-0.03,0.63,-0.09,38.94
16,-0.03,0.63,0.38,39.81
16,0.28,1.76,0.38,39.81
16,0.03,2.08,0.48,38.03
16,0.03,2.10,-0.21,37.50
17,-0.15,-0.08,-0.43,40.73
17,-0.15,-0.07,0.01,38.31
17,-0.02,0.87,0.01,37.56
17,0.05,2.01,0.48,37.56
17,0.05,2.05,0.29,36.83
17,0.00,1.80,0.29,36.84
17,-0.10,0.44,-0.33,36.84
17,-0.10,0.03,-0.38,40.70
17,-0.08,0.03,-0.38,40.03
17,0.05,0.97,0.13,40.03
17,0.04,2.05,0.56,39.87
17,0.16,2.05,0.52,40.32
17,-0.04,1.60,0.27,40.32
17,-0.03,0.27,-0.40,38.89
17,-0.16,0.27,-0.38,38.25
17,-0.09,0.26,-0.32,38.25
17,0.01,1.15,0.17,37.93
17,0.01,1.15,0.53,39.51
17,0.06,2.19,0.53,39.51
17,-0.04,1.38,0.14,39.17
17,-0.04,1.41,-0.43,38.70
17,-0.19,0.16,-0.43,38.65
17,-0.06,0.36,-0.24,39.43
17,-0.06,1.17,0.28,39.53
17,0.05,1.17,0.28,38.45
17,0.12,2.11,0.56,38.45
17,0.12,1.22,0.09,39.10
17,-0.03,1.22,0.09,40.21
17,-0.24,-0.05,-0.46,40.21
17,-0.24,0.43,-0.23,39.23
17,-0.05,0.43,-0.20,38.67
17,-0.03,1.23,0.23,38.67
17,0.05,2.16,0.50,36.79
17,0.05,2.16,-0.04,39.25
17,-0.08,1.04,-0.04,39.25
17,-0.23,-0.15,-0.50,40.24
17,-0.23,-0.17,-0.13,36.27
17,0.03,0.52,-0.13,36.40
17,0.24,1.57,0.40,39.53
17,0.24,1.62,0.57,38.96
17,0.06,2.12,0.57,39.05
17,-0.05,0.81,-0.10,39.83
17,-0.05,-0.31,-0.49,38.25
17,-0.21,-0.31,-0.49,38.74
17,-0.05,0.63,-0.10,38.74
17,-0.04,1.69,0.41,40.31
17,0.28,1.69,0.41,39.19
17,0.06,2.07,0.47,39.19
17,0.05,0.68,-0.20,37.03
17,-0.07,0.68,-0.47,38.69
17,-0.14,-0.34,-0.47,38.69
17,0.02,0.76,0.02,38.26
17,0.02,0.76,0.47,39.46
17,0.13,1.82,0.47,39.46
17,0.08,1.98,0.45,36.48
17,0.08,1.97,-0.26,39.01
17,-0.11,0.60,-0.26,38.99
17,-0.13,-0.13,-0.45,39.77
17,-0.13,0.92,0.02,40.40
17,-0.04,0.92,0.02,38.12
17,0.03,2.03,0.47,38.12
17,0.03,1.80,0.29,37.37
17,-0.00,1.80,0.29,36.51
17,-0.10,0.39,-0.34,36.51
17,-0.13,0.02,-0.37,37.00
17,-0.06,0.02,-0.35,39.67
17,0.06,1.01,0.15,39.67
17,0.15,2.03,0.55,37.88
17,0.15,2.03,0.27,37.52
17,-0.03,1.62,0.27,37.52
17,-0.18,0.23,-0.39,36.01
17,-0.18,0.23,-0.35,37.76
17,-0.11,0.23,-0.35,38.21
17,0.04,1.11,0.17,37.42
17,0.04,1.11,0.54,38.47
17,0.08,2.18,0.54,38.43
17,-0.05,1.45,0.16,39.99
17,-0.05,0.15,-0.43,40.85
17,-0.21,0.15,-0.43,37.93
17,-0.01,0.36,-0.25,37.93
17,-0.03,1.17,0.29,39.49
17,0.09,1.17,0.27,40.08
17,0.09,2.10,0.59,40.08
17,0.12,1.24,0.10,38.34
17,-0.07,1.24,0.07,37.11
17,-0.22,-0.07,-0.49,37.11
17,-0.08,0.47,-0.22,38.10
17,-0.08,0.47,0.23,36.28
17,-0.05,1.22,0.23,36.28
17,0.07,2.18,0.50,38.67
17,0.07,2.14,-0.04,40.59
17,-0.05,1.01,-0.04,40.40
17,-0.23,-0.14,-0.49,38.83
17,-0.23,0.49,-0.13,41.70
17,-0.01,0.49,-0.13,38.90
17,0.27,1.60,0.39,38.90
17,0.27,2.11,0.55,40.96
17,0.11,2.11,0.55,37.88
17,-0.06,0.84,-0.10,37.88
17,-0.02,-0.27,-0.51,38.81
17,-0.21,-0.27,-0.54,40.01
17,-0.04,0.63,-0.10,40.01
17,0.27,1.70,0.43,40.30
17,0.27,1.70,0.48,40.51
17,0.03,2.11,0.48,40.51
17,-0.05,0.66,-0.22,38.07
17,-0.05,0.66,-0.47,37.05
17,-0.10,-0.33,-0.47,36.84
17,0.01,0.75,0.02,38.41
17,0.01,0.73,0.49,36.85
17,0.11,1.85,0.49,37.02
17,0.05,2.00,0.45,40.15
17,0.05,0.56,-0.26,38.04
17,-0.10,0.56,-0.26,43.35
17,-0.17,-0.10,-0.44,43.35
17,-0.17,0.86,0.01,41.32
17,-0.01,0.86,0.02,37.41
17,0.09,2.01,0.46,37.41
17,0.07,1.82,0.32,37.18
17,0.01,1.82,0.36,37.69
17,-0.11,0.46,-0.32,37.69
17,-0.07,0.00,-0.39,37.44
17,-0.07,0.00,0.14,40.39
17,0.07,0.98,0.14,40.39
17,0.14,2.04,0.55,40.71
17,0.14,2.06,0.28,38.18
17,-0.05,1.62,0.28,37.60
17,-0.15,0.25,-0.40,39.95
17,-0.15,0.26,-0.33,41.21
17,-0.09,0.26,-0.33,41.29
17,0.02,1.15,0.17,39.72
17,0.02,2.19,0.52,39.16
17,0.05,2.19,0.52,40.80
17,-0.03,1.42,0.14,40.80
17,-0.01,0.14,-0.42,41.15
17,-0.20,0.14,-0.43,38.08
17,-0.06,0.35,-0.24,38.08
17,-0.00,1.14,0.27,40.16
17,0.06,1.14,0.57,40.14
17,0.13,2.10,0.57,40.14
17,-0.04,1.26,0.10,38.43
17,-0.04,1.26,-0.48,37.98
17,-0.25,-0.05,-0.48,37.98
17,-0.04,0.44,-0.24,37.63
17,-0.04,0.48,0.26,40.72
17,-0.06,1.23,0.26,41.34
17,0.06,2.17,0.52,39.77
17,0.06,1.02,-0.04,38.02
17,-0.08,1.02,-0.04,38.53
17,-0.24,-0.18,-0.50,38.53
17,-0.24,0.52,-0.13,39.43
17,0.01,0.52,-0.13,38.55
17,0.26,1.59,0.40,38.55
17,0.27,2.12,0.58,40.77
17,0.08,2.12,0.58,40.64
17,-0.04,0.84,-0.11,40.64
17,-0.21,-0.31,-0.51,38.54
17,-0.21,-0.31,-0.11,40.37
17,-0.05,0.61,-0.11,40.37
17,0.25,1.63,0.41,38.74
17,0.25,1.66,0.47,39.26
17,0.06,2.10,0.47,39.12
17,-0.08,0.71,-0.19,36.77
17,-0.08,0.72,-0.48,41.49
17,-0.15,-0.35,-0.48,42.00
17,0.02,0.74,0.01,40.43
17,0.02,1.82,0.49,37.59
17,0.11,1.82,0.49,40.13
17,0.07,2.01,0.45,40.13
17,0.08,0.59,-0.25,38.70
17,-0.11,0.59,-0.20,38.73
17,-0.12,-0.11,-0.45,38.73
17,-0.10,0.91,0.03,36.11
17,-0.04,0.91,0.02,40.12
17,0.05,2.03,0.46,40.12
17,0.03,1.83,0.30,39.57
17,0.03,1.83,-0.35,41.29
17,-0.10,0.40,-0.35,41.29
17,-0.06,0.04,-0.38,38.97
17,-0.06,0.00,0.14,39.66
17,0.02,0.94,0.14,39.88
17,0.17,2.00,0.55,39.09
17,0.17,1.96,0.28,37.64
17,-0.02,1.65,0.28,39.39
17,-0.17,0.27,-0.38,39.39
17,-0.17,0.22,-0.35,37.28
17,-0.10,0.22,-0.35,41.45
17,0.03,1.12,0.17,41.45
17,0.04,2.19,0.52,38.62
17,0.04,2.19,0.54,40.79
17,-0.05,1.47,0.16,40.79
17,-0.02,0.17,-0.43,41.10
17,-0.21,0.17,-0.25,37.92
17,-0.03,0.38,-0.25,37.92
17,0.05,1.14,0.27,39.37
17,0.05,1.14,0.58,39.56
17,0.09,2.14,0.58,39.56
17,-0.05,1.24,0.09,39.35
17,-0.05,1.25,-0.48,37.09
17,-0.23,-0.07,-0.48,37.27
17,-0.09,0.46,-0.22,36.49
17,-0.09,1.19,0.23,39.97
17,-0.04,1.19,0.23,38.28
17,0.08,2.17,0.49,38.28
17,0.08,1.03,-0.03,38.20
17,-0.06,1.03,-0.03,39.64
17,-0.24,-0.14,-0.50,39.64
17,-0.19,0.49,-0.14,36.96
17,-0.00,0.49,-0.18,37.78
17,0.27,1.57,0.39,37.78
17,0.10,2.12,0.57,39.66
17,0.10,2.12,-0.08,41.51
17,-0.07,0.85,-0.08,41.51
17,-0.20,-0.30,-0.51,40.04
17,-0.20,-0.30,-0.10,42.75
17,-0.05,0.63,-0.10,42.50
17,0.25,1.66,0.41,38.58
17,0.25,1.67,0.47,39.64
17,0.04,2.11,0.47,39.35
17,-0.05,0.68,-0.21,39.35
17,-0.05,-0.36,-0.48,38.43
17,-0.11,-0.36,-0.48,37.48
17,0.01,0.75,0.01,37.48
17,0.02,1.84,0.49,39.33
17,0.15,1.84,0.45,40.78
17,0.08,2.01,0.45,40.78
17,0.08,0.60,-0.24,38.85
17,-0.10,0.60,-0.20,37.68
17,-0.17,-0.16,-0.45,37.68
17,-0.00,0.85,-0.01,38.02
17,-0.00,0.85,0.46,37.27
17,0.09,2.01,0.46,37.27
17,-0.00,1.85,0.33,37.29
18,-0.14,0.27,-0.39,40.54
18,-0.11,0.23,-0.33,37.24
18,-0.11,0.23,0.16,37.15
18,0.02,1.10,0.16,37.15
18,0.04,2.18,0.51,40.08
18,0.04,2.16,0.16,41.85
18,-0.03,1.47,0.16,41.69
18,-0.19,0.17,-0.41,41.69
18,-0.19,0.34,-0.26,38.77
18,-0.06,0.34,-0.26,37.42
18,0.06,1.12,0.26,37.42
18,0.06,2.08,0.55,39.81
18,0.13,2.08,0.55,37.34
18,-0.07,1.31,0.12,37.34
18,-0.07,-0.01,-0.48,37.42
18,-0.25,-0.01,-0.48,38.50
18,-0.04,0.44,-0.23,38.50
18,-0.07,1.22,0.30,38.86
18,-0.07,1.22,0.54,35.79
18,0.08,2.17,0.54,35.79
18,-0.07,1.05,-0.03,39.49
18,-0.07,1.04,-0.51,38.21
18,-0.22,-0.14,-0.51,38.15
18,0.01,0.51,-0.14,40.50
18,0.01,0.55,0.40,40.23
18,0.23,1.55,0.40,40.37
18,0.08,2.11,0.57,40.37
18,0.08,0.84,-0.09,38.18
18,-0.04,0.84,-0.09,39.81
18,-0.22,-0.28,-0.50,39.81
18,-0.21,0.58,-0.12,38.25
18,-0.02,0.58,-0.12,37.09
18,0.24,1.60,0.38,37.09
18,0.22,2.12,0.47,39.79
18,0.03,2.12,-0.18,39.81
18,-0.08,0.74,-0.18,39.81
18,-0.17,-0.32,-0.49,41.09
18,-0.17,-0.32,-0.00,39.68
18,0.02,0.74,-0.00,39.68
18,0.10,1.80,0.48,38.79
18,0.10,1.81,0.46,38.88
18,0.07,2.06,0.46,38.49
18,-0.10,0.59,-0.25,39.27
18,-0.10,-0.13,-0.45,41.79
18,-0.14,-0.13,-0.45,38.46
18,-0.04,0.86,0.00,38.46
18,-0.04,2.01,0.48,38.51
18,0.12,2.01,0.45,37.46
18,0.03,1.85,0.32,37.46
18,0.04,0.43,-0.33,37.97
18,-0.08,0.43,-0.33,38.70
18,-0.08,-0.03,-0.40,38.70
18,0.06,0.95,0.13,37.32
18,0.06,0.95,0.54,37.35
18,0.14,2.00,0.54,37.35
18,-0.02,1.69,0.29,38.81
18,-0.02,1.71,-0.36,39.20
18,-0.17,0.27,-0.36,39.83
18,-0.08,0.19,-0.36,36.69
18,-0.08,0.24,0.16,38.70
18,0.03,1.11,0.16,38.60
18,-0.00,2.20,0.52,39.39
18,-0.00,1.50,0.18,39.73
18,-0.05,1.50,0.18,37.65
18,-0.19,0.16,-0.44,37.65
18,-0.24,0.36,-0.26,38.26
18,-0.05,0.36,-0.31,39.20
18,0.05,1.12,0.25,39.20
18,0.04,2.13,0.58,37.68
18,0.10,2.13,0.60,36.65
18,-0.05,1.29,0.10,36.65
18,-0.22,-0.03,-0.47,39.27
18,-0.22,-0.03,-0.25,39.39
18,-0.08,0.40,-0.25,39.39
18,-0.05,1.18,0.26,39.25
18,-0.05,1.17,0.52,35.12
18,0.10,2.17,0.52,34.62
18,-0.07,1.08,-0.02,39.32
18,-0.07,1.09,-0.50,40.29
18,-0.24,-0.10,-0.50,39.42
18,0.03,0.47,-0.15,39.42
18,0.03,1.55,0.38,38.86
18,0.27,1.55,0.38,39.52
18,0.09,2.12,0.59,39.52
18,0.11,0.87,-0.08,38.69
18,-0.07,0.87,-0.12,37.39
18,-0.21,-0.30,-0.50,37.39
18,-0.05,0.59,-0.11,36.91
18,-0.05,0.59,0.34,38.63
18,0.18,1.57,0.34,38.63
18,0.04,2.12,0.48,39.18
18,0.04,2.12,-0.18,38.10
18,-0.06,0.73,-0.18,38.10
18,-0.13,-0.34,-0.48,40.67
18,-0.13,-0.35,-0.01,42.12
18,0.00,0.71,-0.01,41.96
18,0.16,1.81,0.49,38.04
18,0.16,2.03,0.47,39.22
18,0.09,2.03,0.47,37.52
18,-0.10,0.64,-0.24,37.52
18,-0.10,-0.20,-0.47,39.19
18,-0.17,-0.20,-0.45,39.16
18,-0.01,0.85,-0.01,39.16
18,-0.02,1.99,0.50,36.49
18,0.17,1.99,0.47,36.47
18,0.01,1.87,0.34,36.47
18,-0.09,0.47,-0.34,38.63
18,-0.09,0.47,-0.40,38.83
18,-0.06,-0.07,-0.40,38.83
18,0.05,0.95,0.13,40.76
18,0.05,0.98,0.56,37.66
18,0.15,2.04,0.56,37.73
18,-0.03,1.66,0.29,36.95
18,-0.03,1.66,-0.38,38.13
18,-0.14,0.28,-0.38,38.66
18,-0.12,0.20,-0.35,38.66
18,-0.12,1.06,0.14,39.65
18,0.04,1.06,0.14,36.87
18,0.00,2.17,0.50,36.87
18,0.03,1.52,0.19,37.17
18,-0.03,1.52,0.21,38.81
18,-0.20,0.22,-0.42,38.81
18,-0.24,0.33,-0.27,37.24
18,-0.06,0.33,0.26,39.91
18,0.05,1.10,0.26,39.91
18,0.16,2.12,0.56,37.51
18,0.16,2.12,0.13,38.15
18,-0.08,1.35,0.13,38.15
18,-0.24,-0.01,-0.48,39.35
18,-0.24,-0.06,-0.23,40.47
18,-0.06,0.44,-0.23,40.21
18,-0.07,1.22,0.27,38.64
18,-0.07,2.20,0.50,39.65
18,0.11,2.20,0.50,38.54
18,-0.06,1.10,-0.03,38.54
18,-0.06,-0.13,-0.50,37.04
18,-0.23,-0.13,-0.47,40.10
18,0.01,0.48,-0.15,40.10
18,0.00,1.47,0.39,40.32
18,0.19,1.47,0.39,42.21
18,0.08,2.14,0.57,42.21
18,-0.04,0.88,-0.07,38.59
18,-0.04,0.88,-0.51,37.23
18,-0.23,-0.30,-0.51,37.23
18,-0.01,0.56,-0.13,36.85
18,-0.01,0.56,0.35,39.38
18,0.14,1.50,0.35,39.88
18,0.02,2.14,0.50,40.66
18,0.02,2.19,-0.16,37.17
18,-0.09,0.75,-0.16,36.83
18,-0.15,-0.36,-0.50,38.39
18,-0.15,0.72,-0.02,38.74
18,0.02,0.72,-0.02,38.62
18,0.16,1.78,0.50,38.62
18,0.18,2.07,0.48,37.51
18,0.06,2.07,0.50,38.43
18,-0.09,0.63,-0.25,38.43
18,-0.09,-0.18,-0.45,38.08
18,-0.15,-0.18,-0.01,38.89
18,-0.03,0.81,-0.01,38.89
18,0.22,1.96,0.41,40.75
18,0.22,1.96,0.32,38.93
18,0.03,1.89,0.32,38.93
18,-0.09,0.46,-0.32,38.12
18,-0.09,0.47,-0.41,38.42
18,-0.08,-0.10,-0.41,38.99
18,0.07,0.92,0.12,38.20
18,0.07,2.00,0.54,39.80
18,0.13,2.00,0.54,39.24
18,-0.01,1.71,0.31,39.24
18,-0.01,0.33,-0.36,41.92
18,-0.16,0.33,-0.36,36.73
18,-0.08,0.18,-0.36,36.73
18,-0.11,1.09,0.16,38.84
18,0.02,1.09,0.14,36.68
18,-0.03,2.20,0.52,36.68
18,-0.03,1.53,0.19,37.55
18,-0.03,1.53,-0.44,37.71
18,-0.18,0.19,-0.44,37.71
18,-0.05,0.33,-0.27,37.23
18,-0.05,0.34,0.27,39.83
18,0.03,1.09,0.27,39.44
18,0.12,2.12,0.57,39.44
18,0.12,2.09,0.11,41.11
18,-0.05,1.34,0.11,39.79
18,-0.23,-0.00,-0.46,39.79
18,-0.23,0.38,-0.27,39.45
18,-0.06,0.38,-0.27,37.46
18,-0.06,1.18,0.27,37.46
18,-0.02,2.18,0.52,36.48
18,0.11,2.18,0.51,38.42
18,-0.09,1.13,0.01,38.42
18,-0.07,-0.08,-0.50,35.46
18,-0.26,-0.08,-0.16,41.15
18,0.03,0.46,-0.16,41.15
18,0.20,1.44,0.38,35.57
18,0.20,1.44,0.59,38.25
18,0.07,2.15,0.59,37.97
18,-0.05,0.90,-0.07,39.53
18,-0.05,0.91,-0.51,39.54
18,-0.21,-0.28,-0.51,39.21
18,-0.06,0.56,-0.13,38.43
18,-0.06,1.50,0.34,38.19
18,0.14,1.50,0.34,38.91
18,0.05,2.12,0.50,38.91
18,0.06,0.77,-0.15,36.60
18,-0.07,0.77,-0.18,42.24
18,-0.17,-0.33,-0.49,42.24
18,-0.18,0.69,-0.03,36.99
18,0.01,0.69,0.47,37.47
18,0.13,1.79,0.47,37.47
18,0.07,2.06,0.48,39.18
18,0.07,2.06,-0.21,37.39
18,-0.10,0.68,-0.21,37.00
18,-0.16,-0.25,-0.48,40.13
18,-0.16,-0.22,-0.01,38.80
18,-0.03,0.84,-0.01,38.61
18,0.19,1.99,0.45,40.18
18,0.19,1.88,0.35,38.13
18,0.02,1.88,0.35,40.59
18,-0.07,0.48,-0.33,40.59
18,-0.11,-0.15,-0.41,39.08
18,-0.05,-0.15,-0.38,37.14
18,0.06,0.92,0.12,37.14
18,0.02,2.00,0.54,37.87
18,0.14,2.00,0.31,39.68
18,0.02,1.72,0.31,39.68
18,-0.12,0.33,-0.35,41.59
18,-0.12,0.33,-0.36,39.98
18,-0.12,0.15,-0.36,39.98
18,0.03,1.02,0.12,38.29
18,0.03,1.01,0.51,39.32
18,-0.02,2.14,0.51,39.80
19,-0.09,1.40,-0.47,36.46
19,-0.22,0.04,-0.47,36.39
19,-0.06,0.42,-0.25,40.31
19,-0.06,0.39,0.25,37.31
19,-0.06,1.20,0.25,39.42
19,0.13,2.18,0.51,39.42
19,0.13,1.14,0.01,39.26
19,-0.05,1.14,0.01,36.63
19,-0.24,-0.09,-0.48,36.63
19,-0.24,0.45,-0.17,36.45
19,0.01,0.45,-0.13,38.41
19,0.25,1.47,0.37,38.41
19,0.10,2.13,0.58,41.43
19,0.10,2.13,-0.04,40.80
19,-0.04,0.92,-0.04,40.80
19,-0.23,-0.26,-0.51,41.32
19,-0.23,-0.26,-0.13,38.04
19,-0.01,0.56,-0.13,37.88
19,0.11,1.44,0.36,37.88
19,0.11,1.48,0.52,37.91
19,0.02,2.17,0.52,38.28
19,-0.09,0.79,-0.16,39.06
19,-0.09,-0.32,-0.51,37.93
19,-0.15,-0.32,-0.51,39.52
19,0.01,0.68,-0.03,39.52
19,0.04,1.76,0.48,37.82
19,0.16,1.76,0.48,37.20
19,0.06,2.11,0.48,37.20
19,0.05,0.63,-0.23,38.38
19,-0.08,0.63,-0.47,38.91
19,-0.17,-0.25,-0.47,38.91
19,-0.03,0.77,-0.03,40.66
19,-0.03,0.77,0.41,37.63
19,0.27,1.95,0.41,37.69
19,0.04,1.94,0.36,40.82
19,0.04,2.00,-0.31,38.25
19,-0.09,0.50,-0.31,38.08
19,-0.07,-0.17,-0.44,38.08
19,-0.07,0.89,0.10,39.43
19,0.08,0.89,0.10,38.60
19,0.14,1.98,0.55,38.60
19,0.14,1.78,0.33,38.48
19,0.00,1.78,0.34,39.76
19,-0.13,0.36,-0.35,39.76
19,-0.16,0.13,-0.37,38.49
19,-0.09,0.13,-0.37,38.35
19,0.00,1.04,0.13,38.35
19,-0.03,2.19,0.50,38.07
19,-0.03,2.19,0.22,36.91
19,-0.04,1.57,0.22,36.91
19,-0.16,0.24,-0.41,37.94
19,-0.16,0.23,-0.29,37.91
19,-0.08,0.29,-0.29,38.01
19,0.04,1.06,0.24,37.23
19,0.04,2.14,0.56,37.14
19,0.15,2.14,0.56,34.98
19,-0.05,1.40,0.13,34.98
19,-0.05,0.07,-0.46,37.80
19,-0.23,0.07,-0.46,36.23
19,-0.06,0.36,-0.27,36.23
19,-0.05,1.22,0.25,40.32
19,-0.05,1.22,0.21,38.39
19,0.12,2.22,0.52,38.39
19,-0.08,1.16,0.04,38.13
19,-0.08,1.16,-0.50,40.12
19,-0.23,-0.04,-0.50,40.12
19,0.03,0.43,-0.17,37.26
19,0.03,0.40,0.37,38.32
19,0.17,1.40,0.37,38.81
19,0.07,2.16,0.58,38.02
19,0.07,2.17,-0.05,36.59
19,-0.04,0.92,-0.05,38.79
19,-0.23,-0.23,-0.49,38.79
19,-0.23,0.52,-0.15,38.97
19,-0.04,0.52,-0.15,38.78
19,0.11,1.41,0.35,38.78
19,0.10,2.12,0.50,37.64
19,0.04,2.12,0.49,41.25
19,-0.08,0.82,-0.14,41.25
19,-0.20,-0.28,-0.49,36.83
19,-0.20,-0.28,-0.05,36.94
19,0.03,0.66,-0.05,36.94
19,0.20,1.76,0.46,37.47
19,0.20,1.79,0.48,40.44
19,0.07,2.10,0.48,40.49
19,-0.09,0.68,-0.21,40.49
19,-0.09,0.66,-0.49,37.92
19,-0.15,-0.28,-0.49,37.92
19,-0.05,0.81,-0.01,37.92
19,-0.05,2.00,0.45,38.44
19,0.23,2.00,0.45,36.98
19,0.02,1.93,0.38,36.98
19,0.06,0.49,-0.31,39.35
19,-0.07,0.49,-0.28,37.32
19,-0.07,-0.21,-0.41,37.32
19,-0.06,0.89,0.11,38.45
19,0.06,0.89,0.54,37.85
19,0.10,1.97,0.54,37.85
19,0.04,1.77,0.33,39.05
19,0.04,1.77,-0.33,39.71
19,-0.13,0.36,-0.33,39.71
19,-0.11,0.10,-0.39,38.54
19,-0.11,0.08,0.12,40.16
19,0.03,1.02,0.12,40.28
19,-0.03,2.15,0.50,37.15
19,-0.03,1.65,0.24,35.97
19,-0.05,1.65,0.24,36.92
19,-0.16,0.25,-0.42,36.92
19,-0.16,0.28,-0.30,38.47
19,-0.05,0.28,-0.26,37.71
19,0.03,1.04,0.24,37.71
19,0.00,2.11,0.56,38.15
19,0.13,2.11,0.51,41.44
19,-0.09,1.44,0.14,41.44
19,-0.20,0.05,-0.46,38.07
19,-0.20,0.05,-0.27,39.67
19,-0.08,0.38,-0.27,39.67
19,-0.05,1.18,0.23,41.08
19,-0.05,1.17,0.52,38.12
19,0.14,2.17,0.52,38.03
19,-0.06,1.20,0.04,36.46
19,-0.06,-0.04,-0.48,39.55
19,-0.23,-0.04,-0.48,39.58
19,0.01,0.40,-0.18,39.58
19,0.01,1.33,0.35,37.39
19,0.15,1.33,0.35,38.87
19,0.08,2.14,0.57,38.87
19,0.07,0.97,-0.03,40.53
19,-0.05,0.97,-0.01,40.20
19,-0.24,-0.23,-0.51,40.20
19,-0.02,0.57,-0.13,38.72
19,-0.02,0.57,0.38,35.11
19,0.07,1.37,0.38,35.11
19,-0.01,2.17,0.53,39.53
19,-0.01,2.14,-0.15,37.45
19,-0.07,0.82,-0.15,37.20
19,-0.17,-0.31,-0.51,38.77
19,-0.17,-0.28,-0.04,40.43
19,-0.00,0.65,-0.04,38.03
19,0.12,1.75,0.44,38.03
19,0.12,2.11,0.49,37.91
19,0.07,2.11,0.49,37.47
19,-0.08,0.66,-0.21,37.47
19,-0.07,-0.24,-0.47,37.31
19,-0.19,-0.24,-0.49,36.59
19,-0.02,0.76,-0.05,36.59
19,0.27,1.89,0.48,40.32
19,0.27,1.89,0.41,37.57
19,0.03,1.97,0.41,37.57
19,-0.08,0.53,-0.30,38.89
19,-0.08,0.53,-0.44,38.90
19,-0.07,-0.22,-0.44,39.09
19,0.06,0.86,0.10,38.31
19,0.06,0.84,0.54,37.39
19,0.11,1.97,0.54,37.03
19,-0.01,1.81,0.35,40.94
19,-0.01,0.37,-0.34,38.48
19,-0.10,0.37,-0.34,39.40
19,-0.10,0.10,-0.37,39.40
19,-0.11,1.00,0.10,38.14
19,0.01,1.00,0.11,38.07
19,-0.01,2.13,0.49,38.07
19,-0.02,1.62,0.23,36.45
19,-0.02,1.62,-0.41,36.32
19,-0.15,0.28,-0.41,36.32
19,-0.08,0.26,-0.31,39.10
19,-0.08,0.26,0.22,40.19
19,0.01,1.02,0.22,40.19
19,0.14,2.09,0.56,40.33
19,0.14,2.07,0.16,39.22
19,-0.06,1.44,0.16,39.79
19,-0.21,0.11,-0.45,39.79
19,-0.21,0.35,-0.28,39.76
19,-0.03,0.35,-0.28,40.14
19,-0.07,1.23,0.25,40.14
19,-0.07,2.21,0.55,40.55
19,0.11,2.21,0.50,39.66
19,-0.08,1.20,0.06,39.66
19,-0.09,-0.02,-0.49,38.11
19,-0.22,-0.02,-0.49,37.54
19,0.02,0.42,-0.18,37.54
19,0.17,1.35,0.35,38.39
19,0.17,1.35,0.58,39.73
19,0.07,2.14,0.58,39.73
19,-0.02,0.97,-0.04,37.56
19,-0.02,1.00,-0.48,37.30
19,-0.24,-0.19,-0.48,37.49
19,-0.03,0.50,-0.17,40.63
19,-0.03,1.34,0.35,36.31
19,0.07,1.34,0.35,40.02
19,0.03,2.16,0.52,40.02
19,0.03,0.88,-0.11,38.52
19,-0.10,0.88,-0.07,39.37
19,-0.20,-0.27,-0.51,39.37
19,-0.21,0.63,-0.06,37.85
19,0.04,0.63,-0.04,41.17
19,0.25,1.72,0.46,41.17
19,0.07,2.15,0.50,38.63
19,0.07,2.15,-0.20,37.78
19,-0.09,0.71,-0.20,37.78
19,-0.15,-0.30,-0.48,38.49
19,-0.15,-0.30,-0.04,39.84
19,-0.06,0.76,-0.04,39.11
19,0.27,1.91,0.47,40.67
19,0.27,1.97,0.40,39.76
19,0.04,1.97,0.40,39.63
19,-0.07,0.54,-0.29,39.63
19,-0.07,-0.25,-0.43,36.58
19,-0.08,-0.25,-0.43,39.53
19,0.05,0.86,0.09,39.53
19,0.04,1.92,0.52,41.50
19,0.10,1.92,0.53,37.93
19,0.06,1.81,0.34,37.93
19,-0.13,0.43,-0.31,39.89
19,-0.13,0.43,-0.40,37.54
19,-0.11,0.06,-0.40,37.54
19,0.02,1.02,0.10,40.11
19,0.02,1.05,0.49,39.41
19,-0.03,2.11,0.49,39.19
19,-0.06,1.67,0.25,36.84
19,-0.06,1.66,-0.41,37.26
19,-0.15,0.29,-0.41,39.71
19,-0.05,0.25,-0.31,39.71
19,-0.05,1.09,0.22,38.75
19,0.06,1.09,0.22,38.66
19,0.16,2.11,0.57,38.66
19,0.19,1.48,0.16,40.53
19,-0.06,1.48,0.18,39.50
19,-0.21,0.09,-0.45,39.50
19,-0.09,0.33,-0.30,38.99
19,-0.09,0.33,0.22,37.80
19,-0.02,1.16,0.22,37.80
19,0.14,2.19,0.54,38.70
20,-0.05,1.04,0.00,38.15
20,0.07,0.83,0.08,40.58
20,0.10,1.95,0.53,40.58
20,0.10,1.86,0.36,39.89
20,0.02,1.86,0.37,40.87
20,-0.11,0.42,-0.32,40.87
20,-0.12,0.07,-0.40,38.88
20,-0.12,0.07,-0.42,40.06
20,0.01,0.95,0.08,40.06
20,-0.02,2.09,0.47,37.71
20,-0.02,2.09,0.25,34.33
20,-0.02,1.69,0.25,34.33
20,-0.15,0.32,-0.38,34.77
20,-0.15,0.37,-0.33,35.63
20,-0.07,0.24,-0.33,35.48
20,0.04,1.02,0.19,39.40
20,0.04,1.04,0.56,36.44
20,0.18,2.10,0.56,36.54
20,-0.05,1.49,0.19,35.76
20,-0.05,0.14,-0.45,37.86
20,-0.21,0.14,-0.45,38.18
20,-0.06,0.34,-0.29,38.18
20,-0.02,1.24,0.24,37.62
20,-0.02,1.24,0.21,38.42
20,0.10,2.25,0.52,38.42
20,0.12,1.25,0.06,35.38
20,-0.06,1.25,-0.48,37.57
20,-0.22,0.00,-0.48,37.57
20,-0.01,0.39,-0.21,38.02
20,-0.01,0.39,0.34,38.12
20,0.15,1.29,0.34,38.12
20,0.09,2.14,0.57,38.53
20,0.09,2.17,-0.00,38.12
20,-0.03,1.05,-0.00,38.13
20,-0.26,-0.16,-0.48,35.78
20,-0.26,-0.14,-0.19,38.89
20,-0.02,0.48,-0.19,40.46
20,-0.02,1.25,0.32,40.46
20,-0.02,2.19,0.52,36.44
20,0.02,2.19,0.52,38.57
20,-0.11,0.92,-0.10,38.57
20,-0.09,-0.25,-0.52,39.32
20,-0.21,-0.25,-0.52,38.83
20,0.03,0.59,-0.08,38.83
20,0.25,1.72,0.46,38.61
20,0.25,1.72,0.52,38.50
20,0.06,2.15,0.52,38.50
20,-0.06,0.73,-0.19,39.25
20,-0.06,0.73,-0.49,39.87
20,-0.16,-0.34,-0.49,39.66
20,-0.05,0.73,-0.06,38.87
20,-0.05,0.70,0.41,39.26
20,0.31,1.83,0.41,39.12
20,0.05,2.02,0.42,36.77
20,0.05,0.58,-0.26,36.23
20,-0.07,0.58,-0.26,38.00
20,-0.10,-0.32,-0.43,38.00
20,-0.07,0.82,0.07,37.76
20,0.06,0.82,0.08,39.41
20,0.10,1.89,0.52,39.41
20,0.11,1.87,0.36,36.10
20,0.05,1.87,0.32,39.71
20,-0.12,0.46,-0.31,39.71
20,-0.11,-0.01,-0.41,35.48
20,-0.11,-0.01,0.09,40.57
20,-0.01,0.99,0.09,40.57
20,-0.02,2.09,0.48,38.94
20,-0.02,2.10,0.27,37.09
20,-0.04,1.73,0.27,37.27
20,-0.13,0.30,-0.40,36.48
20,-0.13,0.25,-0.31,38.62
20,-0.06,0.19,-0.31,37.45
20,0.01,1.02,0.21,37.45
20,0.01,2.07,0.56,38.33
20,0.15,2.07,0.56,40.27
20,-0.04,1.52,0.18,40.27
20,-0.01,0.13,-0.43,40.23
20,-0.20,0.13,-0.43,37.42
20,-0.09,0.29,-0.31,37.42
20,0.02,1.19,0.20,38.57
20,0.02,1.19,0.50,38.87
20,0.13,2.23,0.50,38.87
20,-0.07,1.33,0.09,35.44
20,-0.07,1.33,-0.47,38.91
20,-0.23,0.05,-0.47,38.91
20,0.02,0.38,-0.20,41.14
20,0.02,0.38,0.32,37.41
20,0.15,1.26,0.32,37.39
20,0.08,2.14,0.59,36.61
20,0.08,1.06,0.02,41.68
20,-0.04,1.06,0.02,37.48
20,-0.23,-0.15,-0.50,37.48
20,-0.23,0.52,-0.17,39.52
20,-0.06,0.52,-0.13,39.86
20,-0.01,1.26,0.30,39.86
20,-0.04,2.21,0.52,39.99
20,0.03,2.21,0.53,38.28
20,-0.07,0.91,-0.10,38.28
20,-0.21,-0.23,-0.51,36.13
20,-0.21,-0.23,-0.09,37.51
20,0.01,0.57,-0.09,37.51
20,0.25,1.67,0.44,41.15
20,0.25,1.63,0.51,37.44
20,0.09,2.13,0.51,36.85
20,-0.07,0.74,-0.16,36.06
20,-0.07,0.69,-0.50,38.48
20,-0.19,-0.31,-0.50,38.80
20,-0.03,0.71,-0.07,41.15
20,-0.03,1.85,0.45,38.79
20,0.30,1.85,0.45,41.36
20,0.02,2.05,0.44,41.36
20,0.00,0.57,-0.26,37.73
20,-0.06,0.57,-0.25,39.45
20,-0.06,-0.31,-0.44,39.45
20,-0.08,0.82,0.07,38.38
20,0.05,0.82,0.09,39.23
20,0.09,1.91,0.53,39.23
20,0.04,1.88,0.38,39.05
20,0.04,1.88,-0.29,38.31
20,-0.10,0.45,-0.29,38.31
20,-0.14,0.01,-0.40,39.45
20,-0.14,0.06,0.05,38.99
20,0.02,0.93,0.05,38.80
20,-0.01,2.06,0.48,39.58
20,-0.01,1.75,0.27,39.53
20,-0.04,1.75,0.27,39.48
20,-0.13,0.36,-0.38,39.48
20,-0.13,0.16,-0.35,38.63
20,-0.06,0.16,-0.35,38.85
20,0.07,1.05,0.18,38.85
20,0.11,2.08,0.56,36.80
20,0.17,2.08,0.59,37.85
20,-0.06,1.55,0.22,37.85
20,-0.05,0.16,-0.44,38.55
20,-0.17,0.16,-0.30,39.72
20,-0.08,0.32,-0.30,39.72
20,0.01,1.21,0.21,40.36
20,0.01,1.21,0.53,39.97
20,0.10,2.22,0.53,40.14
20,-0.04,1.31,0.09,38.58
20,-0.04,1.33,-0.46,40.30
20,-0.20,0.08,-0.46,40.07
20,-0.00,0.37,-0.22,40.85
20,-0.00,1.22,0.32,38.79
20,0.09,1.22,0.32,37.64
20,0.10,2.12,0.57,37.64
20,0.10,1.11,0.04,40.12
20,-0.04,1.11,0.02,36.14
20,-0.27,-0.10,-0.48,36.14
20,-0.27,0.48,-0.20,37.15
20,-0.02,0.48,-0.24,38.84
20,-0.02,1.23,0.32,38.84
20,0.01,2.18,0.53,39.01
20,0.01,2.18,-0.07,39.19
20,-0.09,0.96,-0.07,39.19
20,-0.22,-0.23,-0.52,38.75
20,-0.22,-0.25,-0.10,38.29
20,0.04,0.57,-0.10,37.67
20,0.25,1.66,0.43,39.24
20,0.25,1.63,0.54,39.19
20,0.05,2.13,0.54,39.27
20,-0.06,0.76,-0.16,40.05
20,-0.06,-0.32,-0.48,37.59
20,-0.19,-0.32,-0.48,36.74
20,-0.04,0.66,-0.08,36.74
20,-0.01,1.78,0.39,37.68
20,0.30,1.78,0.38,39.75
20,0.04,2.05,0.45,39.75
20,0.04,0.61,-0.23,37.73
20,-0.09,0.61,-0.21,37.49
20,-0.11,-0.32,-0.46,37.49
20,0.05,0.78,0.05,34.93
20,0.05,0.78,0.50,39.53
20,0.11,1.87,0.50,39.53
20,0.05,1.93,0.40,40.06
20,0.05,1.88,-0.30,38.86
20,-0.10,0.50,-0.30,38.50
20,-0.11,-0.05,-0.41,40.85
20,-0.11,0.95,0.06,38.66
20,-0.02,0.95,0.06,39.21
20,-0.01,2.08,0.47,39.21
20,-0.01,1.75,0.27,39.42
20,-0.01,1.75,0.27,37.83
20,-0.10,0.34,-0.38,37.83
20,-0.07,0.12,-0.35,39.08
20,-0.07,0.12,-0.33,40.70
20,0.07,1.02,0.17,40.70
20,0.18,2.05,0.54,39.87
20,0.18,2.05,0.22,39.95
20,-0.02,1.57,0.22,39.95
20,-0.18,0.20,-0.41,39.57
20,-0.18,0.20,-0.32,41.09
20,-0.08,0.26,-0.32,40.90
20,0.05,1.15,0.18,36.98
20,0.05,1.14,0.53,38.75
20,0.10,2.21,0.53,38.58
20,-0.07,1.39,0.12,36.23
20,-0.07,0.08,-0.46,36.20
20,-0.20,0.08,-0.46,39.27
20,0.03,0.42,-0.21,39.27
20,0.03,1.22,0.31,36.32
20,0.11,1.22,0.28,38.29
20,0.08,2.15,0.59,38.29
20,0.07,1.14,0.05,38.05
20,-0.06,1.14,0.01,38.78
20,-0.21,-0.10,-0.49,38.78
20,-0.07,0.47,-0.19,38.88
20,-0.07,0.47,0.27,37.05
20,-0.02,1.21,0.27,37.05
21,0.10,2.15,-0.15,36.81
21,-0.09,0.79,-0.15,36.81
21,-0.19,-0.30,-0.50,38.58
21,-0.19,-0.26,-0.07,39.02
21,-0.03,0.68,-0.07,38.50
21,0.28,1.79,0.40,37.72
21,0.28,2.07,0.47,39.81
21,0.03,2.07,0.47,37.25
21,-0.06,0.61,-0.25,37.25
21,-0.06,-0.32,-0.46,35.89
21,-0.07,-0.32,-0.46,37.00
21,0.03,0.76,0.05,37.00
21,0.02,1.88,0.51,38.34
21,0.08,1.88,0.53,38.34
21,0.05,1.95,0.41,38.34
21,-0.09,0.52,-0.28,38.72
21,-0.09,0.52,-0.42,36.74
21,-0.15,-0.09,-0.42,36.74
21,0.02,0.90,0.03,37.07
21,0.02,0.90,0.50,35.91
21,0.03,2.02,0.50,35.91
21,-0.03,1.81,0.29,39.05
21,-0.03,1.78,-0.37,36.62
21,-0.12,0.41,-0.37,36.17
21,-0.06,0.07,-0.35,37.74
21,-0.06,1.02,0.17,36.29
21,0.07,1.02,0.17,38.78
21,0.15,2.08,0.56,38.78
21,0.14,1.56,0.23,35.54
21,-0.05,1.56,0.20,37.51
21,-0.16,0.20,-0.42,37.51
21,-0.17,0.29,-0.30,38.18
21,-0.10,0.29,-0.31,35.70
21,0.03,1.15,0.19,35.70
21,0.09,2.20,0.52,39.63
21,0.09,2.20,0.10,39.32
21,-0.04,1.39,0.10,39.32
21,-0.20,0.11,-0.43,35.20
21,-0.20,0.10,-0.23,37.55
21,-0.02,0.35,-0.23,37.82
21,0.08,1.18,0.31,38.60
21,0.08,1.17,0.57,39.50
21,0.11,2.10,0.57,37.17
21,-0.06,1.20,0.08,37.17
21,-0.06,-0.06,-0.49,37.81
21,-0.25,-0.06,-0.49,38.94
21,-0.02,0.47,-0.20,38.94
21,-0.01,1.23,0.28,36.79
21,-0.07,1.23,0.26,35.31
21,0.03,2.18,0.51,35.31
21,-0.08,1.00,-0.07,37.39
21,-0.08,1.00,-0.51,40.09
21,-0.21,-0.20,-0.51,40.09
21,0.01,0.54,-0.11,40.58
21,0.01,0.54,0.41,35.05
21,0.24,1.62,0.41,34.49
21,0.09,2.13,0.56,37.62
21,0.09,2.17,-0.14,38.28
21,-0.06,0.79,-0.14,38.19
21,-0.20,-0.31,-0.49,37.41
21,-0.20,0.62,-0.09,37.47
21,-0.02,0.62,-0.09,36.93
21,0.27,1.72,0.38,36.93
21,0.27,2.10,0.47,40.33
21,0.04,2.10,0.47,38.88
21,-0.07,0.65,-0.21,38.88
21,-0.11,-0.32,-0.47,38.63
21,-0.11,-0.32,-0.46,36.72
21,0.04,0.77,0.04,36.72
21,0.11,1.85,0.49,39.19
21,0.11,1.85,0.42,36.34
21,0.06,2.00,0.42,36.34
21,-0.10,0.54,-0.28,36.32
21,-0.10,0.50,-0.41,36.68
21,-0.12,-0.06,-0.41,36.28
21,-0.03,0.90,0.03,40.19
21,-0.03,0.90,0.48,36.41
21,0.03,2.02,0.48,39.42
21,0.00,1.79,0.27,39.42
21,0.00,0.36,-0.36,36.32
21,-0.11,0.36,-0.36,34.64
21,-0.07,0.09,-0.37,34.64
21,-0.12,1.01,0.16,37.94
21,0.07,1.01,0.17,36.56
21,0.17,2.04,0.54,36.56
21,0.15,1.62,0.25,37.40
21,-0.04,1.62,-0.40,38.57
21,-0.18,0.23,-0.40,38.57
21,-0.07,0.25,-0.32,42.27
21,-0.07,0.25,0.18,39.21
21,0.03,1.17,0.18,39.21
21,0.07,2.22,0.53,36.41
21,0.07,2.23,0.14,38.12
21,-0.06,1.42,0.14,37.55
21,-0.19,0.09,-0.45,37.55
21,-0.19,0.38,-0.21,38.66
21,-0.02,0.38,-0.21,36.40
21,0.04,1.16,0.30,36.40
21,0.04,2.17,0.59,38.18
21,0.10,2.17,0.57,40.12
21,-0.03,1.18,0.07,40.12
21,-0.04,-0.08,-0.47,41.08
21,-0.23,-0.08,-0.46,36.98
21,-0.06,0.45,-0.21,36.98
21,-0.05,1.18,0.26,35.87
21,-0.05,1.18,0.50,38.05
21,0.06,2.18,0.50,38.05
21,-0.08,1.01,-0.07,38.46
21,-0.08,1.03,-0.50,39.50
21,-0.24,-0.16,-0.50,39.69
21,0.03,0.52,-0.11,37.34
21,0.03,0.54,0.41,37.79
21,0.24,1.54,0.41,37.91
21,0.08,2.15,0.56,39.48
21,0.08,0.84,-0.12,40.03
21,-0.08,0.84,-0.12,39.55
21,-0.18,-0.32,-0.50,39.55
21,-0.18,0.64,-0.09,35.64
21,-0.06,0.64,-0.07,37.60
21,0.25,1.70,0.37,37.60
21,0.23,2.09,0.46,37.30
21,0.04,2.09,-0.23,39.57
21,-0.05,0.65,-0.23,39.57
21,-0.09,-0.35,-0.45,38.76
21,-0.09,-0.35,0.04,36.74
21,0.03,0.76,0.04,36.74
21,0.14,1.83,0.50,38.75
21,0.14,1.83,0.42,38.03
21,0.08,1.96,0.42,38.11
21,-0.11,0.58,-0.24,39.68
21,-0.11,-0.12,-0.43,38.57
21,-0.15,-0.12,-0.43,39.77
21,0.01,0.90,0.03,39.77
21,0.01,1.99,0.50,37.41
21,0.03,1.99,0.50,37.06
21,-0.02,1.84,0.29,37.06
21,-0.04,0.43,-0.36,39.49
21,-0.11,0.43,-0.37,39.01
21,-0.05,0.00,-0.37,39.01
21,0.06,1.01,0.16,37.30
21,0.06,1.01,0.56,38.02
21,0.13,2.08,0.56,38.02
21,-0.05,1.60,0.25,37.00
21,-0.05,1.60,-0.40,38.16
21,-0.14,0.23,-0.40,38.17
21,-0.11,0.23,-0.33,36.61
21,-0.11,0.23,0.16,34.65
21,0.04,1.10,0.16,34.65
21,0.08,2.18,0.52,37.78
21,0.08,1.46,0.14,37.69
21,-0.03,1.46,0.14,37.63
21,-0.20,0.16,-0.42,37.63
21,-0.20,0.34,-0.22,39.43
21,-0.01,0.34,-0.23,40.35
21,0.06,1.12,0.27,40.35
21,0.05,2.12,0.56,39.04
21,0.11,2.12,0.54,39.13
21,-0.08,1.27,0.10,39.13
21,-0.24,-0.01,-0.48,36.02
21,-0.24,-0.01,-0.21,39.73
21,-0.04,0.45,-0.21,39.73
21,-0.09,1.20,0.26,40.14
21,-0.09,1.20,0.50,40.75
21,0.05,2.20,0.50,41.40
21,-0.06,1.02,-0.06,36.70
21,-0.06,1.04,-0.49,39.68
21,-0.21,-0.15,-0.49,37.96
21,0.01,0.49,-0.12,37.96
21,0.01,1.51,0.40,37.54
21,0.22,1.51,0.40,37.10
21,0.08,2.14,0.55,37.10
21,0.07,0.82,-0.11,38.43
21,-0.05,0.82,-0.07,40.12
21,-0.21,-0.29,-0.50,40.12
21,-0.20,0.60,-0.10,38.67
21,-0.01,0.60,0.37,37.19
21,0.25,1.67,0.37,37.19
21,0.03,2.12,0.48,36.61
21,0.03,2.12,-0.19,39.02
21,-0.07,0.69,-0.19,39.02
21,-0.12,-0.33,-0.47,37.15
21,-0.12,-0.37,0.02,37.37
21,0.03,0.75,0.02,36.89
21,0.11,1.81,0.50,38.46
21,0.11,2.06,0.45,38.12
21,0.06,2.06,0.45,39.73
21,-0.09,0.56,-0.26,39.73
21,-0.09,-0.10,-0.43,37.14
21,-0.13,-0.10,-0.43,40.36
21,-0.02,0.85,0.02,40.36
21,-0.03,2.02,0.45,37.79
21,0.09,2.02,0.49,38.43
21,0.03,1.85,0.30,38.43
21,-0.11,0.41,-0.34,39.20
21,-0.11,0.41,-0.37,40.12
21,-0.07,0.03,-0.37,40.12
21,0.08,0.97,0.14,37.79
21,0.08,0.97,0.54,35.97
21,0.16,2.01,0.54,36.42
21,-0.02,1.68,0.27,36.42
21,-0.02,1.65,-0.39,37.63
21,-0.16,0.28,-0.39,37.62
21,-0.06,0.23,-0.34,40.75
21,-0.06,1.11,0.17,38.51
21,0.03,1.11,0.17,38.40
21,0.03,2.20,0.53,38.40
21,0.02,1.48,0.15,39.45
21,-0.04,1.48,0.13,34.82
21,-0.19,0.12,-0.43,34.82
21,-0.17,0.35,-0.24,34.97
21,-0.05,0.35,-0.21,36.21
21,0.04,1.13,0.29,36.21
21,0.12,2.14,0.57,38.71
21,0.12,2.14,0.08,37.03
21,-0.04,1.26,0.08,37.03
21,-0.24,-0.05,-0.46,34.79
21,-0.24,-0.02,-0.23,37.86
21,-0.05,0.42,-0.23,37.75
21,-0.06,1.18,0.24,37.75
21,-0.06,1.13,0.49,39.51
21,0.07,2.20,0.49,39.79
21,-0.09,1.07,-0.03,39.79
21,-0.09,-0.12,-0.51,38.40
21,-0.24,-0.12,-0.51,38.07
21,0.04,0.47,-0.14,38.07
21,0.04,1.49,0.40,36.75
21,0.23,1.49,0.38,36.72
21,0.08,2.16,0.57,36.72
21,0.12,0.87,-0.11,36.60
21,-0.06,0.87,-0.48,38.28
21,-0.19,-0.30,-0.48,38.28
21,-0.06,0.58,-0.11,39.72
21,-0.06,0.58,0.37,39.56
22,0.14,2.02,0.44,36.70
22,0.07,2.02,-0.24,36.23
22,-0.10,0.64,-0.24,36.23
22,-0.13,-0.17,-0.46,40.23
22,-0.13,-0.17,0.03,40.49
22,-0.01,0.87,0.03,40.49
22,0.10,2.01,0.47,39.76
22,0.10,2.04,0.31,38.93
22,-0.01,1.85,0.31,38.65
22,-0.09,0.44,-0.34,37.09
22,-0.09,-0.02,-0.40,36.96
22,-0.04,-0.02,-0.40,36.22
22,0.06,0.97,0.14,36.22
22,0.06,2.07,0.55,40.06
22,0.10,2.07,0.55,41.14
22,-0.02,1.64,0.27,41.14
22,-0.02,0.27,-0.37,41.18
22,-0.15,0.27,-0.34,36.09
22,-0.11,0.21,-0.34,36.09
22,0.05,1.06,0.15,36.30
22,0.05,1.06,0.51,35.17
22,0.05,2.17,0.51,35.17
22,-0.04,1.51,0.16,38.27
22,-0.04,1.51,-0.43,40.38
22,-0.19,0.20,-0.43,40.31
22,-0.01,0.34,-0.23,37.96
22,-0.01,0.36,0.27,36.40
