seconds, accX, accY, accZ, temp
1,-0.06,0.86,0.07,43.14
1,-0.01,1.66,0.24,43.14
1,-0.03,1.59,0.18,42.88
1,-0.03,1.59,-0.02,41.70
1,-0.08,0.61,-0.02,41.70
1,-0.09,0.24,-0.06,41.06
1,-0.09,0.21,0.14,41.63
1,-0.00,0.90,0.14,41.94
1,0.05,1.71,0.32,41.16
1,0.05,1.54,0.22,44.72
1,0.01,1.54,0.22,41.55
1,-0.10,0.56,-0.00,41.55
1,-0.07,0.28,-0.06,42.70
1,-0.14,0.28,-0.03,43.86
1,-0.03,0.95,0.09,43.86
1,0.03,1.74,0.23,42.99
1,0.03,1.74,0.15,40.52
1,-0.03,1.49,0.15,40.43
1,-0.11,0.50,-0.03,37.29
1,-0.11,0.28,-0.05,40.43
1,-0.08,0.28,-0.05,42.15
1,0.02,1.00,0.17,42.15
1,0.02,1.78,0.30,42.22
1,0.08,1.78,0.27,41.61
1,-0.02,1.43,0.20,41.61
1,-0.11,0.45,-0.02,40.31
1,-0.11,0.45,-0.06,41.86
1,-0.10,0.35,-0.06,41.47
1,-0.05,1.09,0.12,39.91
1,-0.05,1.07,0.24,42.73
1,0.01,1.82,0.24,41.09
1,-0.03,1.38,0.13,41.09
1,-0.03,0.41,-0.06,42.92
1,-0.10,0.41,-0.02,41.15
1,-0.09,0.35,-0.02,41.15
1,-0.11,1.10,0.20,41.96
1,0.01,1.10,0.31,40.77
1,0.06,1.80,0.31,40.77
1,-0.01,1.30,0.16,44.27
1,-0.01,1.28,-0.04,43.45
1,-0.12,0.34,-0.04,43.33
1,-0.11,0.39,-0.03,42.55
1,-0.11,1.17,0.13,40.91
1,-0.01,1.17,0.13,43.84
1,0.03,1.84,0.25,43.84
1,0.02,1.28,0.11,41.85
1,-0.05,1.28,-0.05,42.41
1,-0.12,0.33,-0.05,42.41
1,-0.05,0.44,-0.00,40.08
1,-0.05,0.42,0.21,41.62
1,0.04,1.23,0.21,41.96
1,0.08,1.83,0.31,43.53
1,0.08,1.20,0.14,41.89
1,-0.04,1.20,0.14,42.61
1,-0.12,0.26,-0.05,42.61
1,-0.08,0.47,-0.02,40.56
1,-0.08,0.47,-0.02,41.46
1,-0.03,1.26,0.17,41.46
1,0.01,1.83,0.26,38.59
1,0.01,1.83,0.08,39.83
1,-0.04,1.13,0.08,39.18
1,-0.11,0.23,-0.07,39.18
1,-0.11,0.19,0.03,42.12
1,-0.06,0.50,0.03,41.11
1,0.04,1.33,0.24,41.11
1,0.06,1.83,0.29,41.27
1,0.06,1.83,0.30,39.21
1,-0.04,1.07,0.11,39.21
1,-0.13,0.21,-0.06,39.44
1,-0.13,0.21,0.00,39.33
1,-0.08,0.55,0.00,39.33
1,0.01,1.37,0.18,40.04
1,0.01,1.32,0.22,40.28
1,0.02,1.82,0.22,42.44
1,-0.07,0.99,0.06,42.44
1,-0.07,0.17,-0.07,42.43
1,-0.12,0.17,-0.07,42.48
1,-0.03,0.60,0.05,42.48
1,-0.06,1.41,0.26,43.70
1,0.06,1.41,0.28,41.56
1,0.05,1.79,0.28,41.56
1,-0.06,0.93,0.10,44.83
1,-0.06,0.93,-0.08,39.91
1,-0.09,0.18,-0.08,40.33
1,-0.09,0.68,0.04,42.68
1,-0.09,1.47,0.21,42.35
1,-0.01,1.47,0.21,42.34
1,0.01,1.79,0.22,42.34
1,0.05,0.87,0.03,37.50
1,-0.07,0.87,0.05,42.04
1,-0.12,0.17,-0.07,42.04
1,-0.03,0.68,0.08,40.98
1,-0.03,0.63,0.28,41.95
1,0.06,1.50,0.28,42.14
1,0.04,1.71,0.27,42.92
1,0.04,0.78,0.05,43.55
1,-0.06,0.78,0.05,41.00
1,-0.14,0.17,-0.06,41.00
1,-0.18,0.75,0.05,43.20
1,-0.06,0.75,0.02,41.47
1,0.02,1.58,0.21,41.47
1,0.01,1.71,0.20,39.89
1,0.01,1.71,0.01,43.54
1,-0.10,0.75,0.01,43.77
1,-0.09,0.20,-0.07,42.21
1,-0.09,0.23,0.10,40.19
1,-0.00,0.80,0.10,41.17
1,0.06,1.62,0.29,41.17
1,0.06,1.64,0.24,44.99
1,0.03,1.64,0.22,40.19
1,-0.09,0.65,0.03,40.19
1,-0.11,0.19,-0.08,41.40
1,-0.11,0.19,0.07,40.38
1,-0.06,0.84,0.07,40.38
1,-0.00,1.66,0.24,40.72
1,-0.00,1.67,0.19,40.23
1,-0.01,1.61,0.19,40.48
1,-0.08,0.62,-0.02,42.83
1,-0.08,0.24,-0.05,39.48
1,-0.10,0.24,-0.05,42.93
1,-0.00,0.90,0.14,42.93
1,-0.01,1.71,0.32,39.88
1,0.05,1.71,0.34,37.46
1,0.02,1.57,0.22,37.46
1,-0.10,0.57,-0.00,40.85
1,-0.10,0.62,-0.06,39.45
1,-0.13,0.25,-0.06,39.35
1,-0.02,0.94,0.08,43.27
1,-0.02,1.72,0.23,44.89
1,0.03,1.72,0.23,42.43
1,-0.03,1.51,0.16,42.43
1,-0.05,0.51,-0.03,43.83
1,-0.11,0.51,-0.05,42.37
1,-0.08,0.27,-0.05,42.37
1,0.02,1.00,0.16,43.17
1,0.02,1.00,0.31,42.82
1,0.06,1.78,0.31,42.64
1,-0.02,1.45,0.21,43.43
1,-0.02,1.47,-0.03,39.61
1,-0.10,0.47,-0.03,44.42
1,-0.11,0.34,-0.05,44.42
1,-0.11,1.07,0.12,40.87
1,-0.05,1.07,0.12,40.43
1,0.01,1.81,0.24,40.43
1,-0.02,1.40,0.13,38.40
1,-0.02,1.40,-0.05,41.00
1,-0.10,0.41,-0.05,41.00
1,-0.08,0.34,-0.02,38.99
1,-0.08,0.34,0.20,44.06
1,0.01,1.09,0.20,43.90
1,0.08,1.81,0.31,42.33
1,0.08,1.33,0.17,39.94
1,-0.01,1.33,0.16,42.93
1,-0.12,0.35,-0.03,42.93
1,-0.10,0.38,-0.03,41.19
1,-0.10,0.38,0.13,40.48
1,-0.02,1.16,0.13,40.48
1,0.02,1.84,0.25,38.87
1,0.02,1.86,0.12,43.17
1,-0.06,1.30,0.12,43.53
1,-0.11,0.32,-0.06,41.18
1,-0.11,0.43,-0.01,41.25
1,-0.05,0.43,-0.01,42.74
1,0.03,1.20,0.20,42.74
1,0.00,1.83,0.32,39.68
1,0.06,1.83,0.34,40.63
1,-0.04,1.21,0.15,40.63
1,-0.11,0.27,-0.05,39.32
1,-0.11,0.27,-0.02,37.83
1,-0.10,0.46,-0.02,38.23
1,-0.04,1.24,0.17,40.58
1,-0.04,1.84,0.27,39.47
1,0.01,1.84,0.27,42.28
1,-0.04,1.16,0.08,42.28
1,-0.05,0.25,-0.06,42.79
1,-0.11,0.25,-0.10,40.57
1,-0.06,0.50,0.02,40.57
1,0.04,1.30,0.24,39.63
1,0.04,1.30,0.30,41.29
1,0.07,1.85,0.30,40.84
1,-0.03,1.11,0.11,40.84
1,-0.03,1.08,-0.06,42.89
1,-0.13,0.21,-0.06,39.35
1,-0.07,0.52,-0.01,39.35
1,-0.07,1.35,0.18,41.59
1,0.00,1.35,0.17,41.81
1,0.02,1.84,0.23,41.81
1,-0.07,1.02,0.07,44.41
1,-0.07,1.02,-0.07,43.82
1,-0.11,0.17,-0.07,43.82
1,-0.03,0.57,0.04,42.50
1,-0.03,0.57,0.26,43.92
1,0.05,1.38,0.26,44.37
1,0.05,1.83,0.29,39.67
1,0.05,0.97,0.09,42.67
1,-0.05,0.97,0.11,43.37
1,-0.10,0.19,-0.08,43.37
1,-0.11,0.65,0.03,40.22
1,-0.11,0.65,0.20,42.19
1,-0.00,1.43,0.20,42.19
1,0.02,1.81,0.22,41.34
1,0.02,1.77,0.04,42.11
1,-0.06,0.90,0.04,42.13
1,-0.12,0.17,-0.07,40.56
1,-0.12,0.65,0.07,43.16
1,-0.03,0.65,0.07,42.33
1,0.06,1.47,0.27,42.33
1,0.05,1.75,0.27,40.69
1,0.05,1.75,0.31,39.35
1,-0.06,0.83,0.06,39.35
1,-0.13,0.18,-0.07,39.51
1,-0.13,0.18,0.04,41.88
1,-0.07,0.72,0.04,41.91
1,0.01,1.54,0.21,41.12
1,0.01,1.76,0.21,40.03
1,0.01,1.76,0.21,38.74
1,-0.09,0.80,0.03,38.74
1,-0.09,0.18,-0.08,43.54
1,-0.09,0.18,-0.10,41.63
1,-0.01,0.75,0.09,41.63
1,0.05,1.58,0.29,41.78
1,0.05,1.58,0.26,41.93
1,0.02,1.67,0.26,42.11
1,-0.08,0.69,0.03,38.98
2,-0.11,0.21,-0.06,40.40
2,-0.00,0.86,0.12,40.25
2,-0.00,0.86,0.31,39.80
2,0.05,1.69,0.31,39.82
2,0.03,1.60,0.22,40.61
2,0.03,0.59,0.00,42.17
2,-0.11,0.59,0.00,42.78
2,-0.12,0.21,-0.07,42.78
2,-0.09,0.90,0.08,42.53
2,-0.03,0.90,0.12,39.44
2,0.01,1.71,0.24,39.44
2,-0.04,1.55,0.18,44.19
2,-0.04,1.55,-0.02,43.38
2,-0.10,0.54,-0.02,43.20
2,-0.08,0.25,-0.06,41.63
2,-0.08,0.28,0.16,42.89
2,0.01,0.97,0.16,40.47
2,0.05,1.76,0.32,40.47
2,0.05,1.51,0.22,40.75
2,-0.01,1.51,0.24,43.32
2,-0.09,0.50,-0.01,43.32
2,-0.12,0.31,-0.06,40.84
2,-0.12,0.31,0.12,39.40
2,-0.05,1.02,0.12,39.40
2,0.02,1.78,0.24,39.70
2,0.02,1.76,0.14,40.58
2,-0.02,1.44,0.14,40.42
2,-0.11,0.42,-0.04,41.21
2,-0.11,0.30,-0.03,40.38
2,-0.09,0.30,-0.03,40.28
2,0.01,1.06,0.19,40.28
2,0.01,1.80,0.30,38.12
2,0.08,1.80,0.30,41.63
2,-0.00,1.39,0.18,41.63
2,-0.12,0.38,-0.03,42.12
2,-0.12,0.42,-0.05,41.71
2,-0.10,0.36,-0.05,42.19
2,-0.04,1.14,0.13,39.06
2,-0.04,1.84,0.25,46.11
2,0.01,1.84,0.25,42.56
2,-0.05,1.35,0.13,42.56
2,-0.04,0.33,-0.07,41.49
2,-0.10,0.33,-0.08,42.60
2,-0.05,0.39,-0.01,42.60
2,0.03,1.16,0.21,39.69
2,0.03,1.16,0.32,38.26
2,0.07,1.84,0.32,38.24
2,-0.03,1.25,0.16,40.59
2,-0.03,1.28,-0.05,45.79
2,-0.12,0.28,-0.05,39.76
2,-0.10,0.43,-0.02,39.76
2,-0.10,1.22,0.16,38.94
2,-0.03,1.22,0.13,42.55
2,0.03,1.86,0.25,42.55
2,-0.03,1.21,0.09,40.33
2,-0.03,1.21,-0.06,37.89
2,-0.12,0.26,-0.06,37.89
2,-0.07,0.48,0.01,43.68
2,-0.07,0.46,0.22,40.23
2,0.05,1.27,0.22,40.44
2,0.07,1.86,0.31,45.92
2,0.07,1.13,0.11,40.64
2,-0.04,1.13,0.12,41.77
2,-0.13,0.19,-0.07,41.77
2,-0.13,0.48,-0.02,40.76
2,-0.06,0.48,0.18,44.63
2,-0.01,1.33,0.18,44.63
2,0.01,1.87,0.25,39.85
2,0.01,1.82,0.08,41.81
2,-0.07,1.07,0.08,41.83
2,-0.11,0.18,-0.07,37.91
2,-0.11,0.55,0.03,41.15
2,-0.04,0.55,0.03,42.23
2,0.05,1.37,0.25,42.23
2,0.05,1.86,0.30,41.51
2,0.05,1.86,0.28,38.95
2,-0.04,1.00,0.10,38.95
2,-0.11,0.17,-0.08,41.25
2,-0.11,0.17,0.02,44.05
2,-0.10,0.61,0.02,44.40
2,0.00,1.41,0.20,43.62
2,0.00,1.83,0.22,42.56
2,0.02,1.83,0.22,41.21
2,-0.07,0.91,0.04,41.21
2,-0.12,0.15,-0.07,39.32
2,-0.12,0.15,-0.12,41.89
2,-0.03,0.63,0.06,41.89
2,0.06,1.46,0.27,41.25
2,0.06,1.46,0.27,42.19
2,0.06,1.80,0.27,41.93
2,-0.07,0.86,0.07,39.58
2,-0.07,0.85,-0.07,43.10
2,-0.12,0.17,-0.07,43.19
2,-0.07,0.71,0.04,43.19
2,-0.07,1.54,0.21,39.90
2,0.00,1.54,0.22,37.55
2,-0.00,1.78,0.22,37.55
2,-0.03,0.79,0.02,40.48
2,-0.09,0.79,-0.09,44.38
2,-0.09,0.16,-0.09,44.38
2,-0.02,0.72,0.09,39.95
2,-0.02,0.69,0.29,45.20
2,0.05,1.57,0.29,45.04
2,0.02,1.69,0.27,40.34
2,0.02,0.71,0.03,40.73
2,-0.06,0.71,0.03,42.08
2,-0.13,0.16,-0.07,42.08
2,-0.13,0.79,0.07,38.86
2,-0.07,0.79,0.22,40.74
2,0.02,1.62,0.22,40.74
2,0.01,1.69,0.19,42.54
2,0.01,1.63,-0.00,43.54
2,-0.09,0.69,-0.00,43.30
2,-0.11,0.19,-0.06,41.74
2,-0.11,0.84,0.12,39.78
2,0.00,0.84,0.12,42.62
2,0.06,1.67,0.31,42.62
2,0.03,1.62,0.23,39.20
2,0.03,1.62,0.21,38.54
2,-0.11,0.60,0.02,38.54
2,-0.12,0.19,-0.07,40.88
2,-0.12,0.19,0.08,41.71
2,-0.04,0.90,0.08,42.04
2,0.00,1.70,0.24,41.26
2,0.00,1.71,0.18,40.11
2,-0.04,1.59,0.18,39.24
2,-0.09,0.55,-0.02,39.24
2,-0.09,0.24,-0.06,39.45
2,-0.09,0.24,-0.03,44.07
2,0.00,0.96,0.15,44.07
2,0.05,1.75,0.32,38.93
2,0.05,1.75,0.22,43.84
2,-0.01,1.54,0.22,43.84
2,-0.09,0.50,-0.02,38.60
2,-0.09,0.46,-0.06,39.90
2,-0.13,0.27,-0.06,40.64
2,-0.05,0.99,0.11,42.21
2,-0.05,1.76,0.24,42.84
2,0.03,1.76,0.21,41.91
2,-0.02,1.47,0.15,41.91
2,-0.05,0.44,-0.04,42.82
2,-0.12,0.44,-0.03,42.19
2,-0.09,0.29,-0.03,42.19
2,0.02,1.05,0.18,44.61
2,0.02,1.05,0.31,43.47
2,0.07,1.80,0.31,43.61
2,-0.01,1.42,0.18,43.61
2,-0.01,0.39,-0.03,45.46
2,-0.12,0.39,-0.03,41.10
2,-0.10,0.36,-0.05,41.10
2,-0.10,1.12,0.13,42.90
2,-0.04,1.12,0.13,41.33
2,0.01,1.82,0.25,41.33
2,-0.04,1.37,0.13,37.71
2,-0.04,1.37,-0.07,41.84
2,-0.10,0.33,-0.07,41.58
2,-0.06,0.38,-0.02,42.36
2,-0.06,1.15,0.20,40.91
2,0.03,1.15,0.20,41.27
2,0.06,1.83,0.32,41.27
2,0.04,1.28,0.16,38.81
2,-0.03,1.28,0.14,39.56
2,-0.12,0.28,-0.05,39.56
2,-0.11,0.42,-0.02,39.64
2,-0.11,0.42,0.15,40.48
2,-0.02,1.21,0.15,40.22
2,0.03,1.88,0.25,41.79
2,0.03,1.93,0.10,41.57
2,-0.03,1.24,0.10,42.46
2,-0.13,0.25,-0.06,42.46
2,-0.13,0.46,0.01,43.90
2,-0.06,0.46,0.03,40.56
2,0.04,1.24,0.22,40.56
2,0.01,1.86,0.31,44.17
2,0.07,1.86,0.13,41.54
2,-0.04,1.15,0.13,41.54
2,-0.11,0.20,-0.06,42.10
2,-0.11,0.23,-0.02,43.41
2,-0.07,0.48,-0.02,43.67
2,-0.02,1.31,0.18,41.32
2,-0.02,1.88,0.27,42.57
2,0.01,1.88,0.27,44.14
2,-0.06,1.10,0.08,44.14
2,-0.05,0.19,-0.07,41.43
2,-0.11,0.19,0.04,41.22
2,-0.05,0.54,0.04,41.22
2,0.04,1.35,0.25,42.03
2,0.04,1.37,0.30,42.59
2,0.05,1.87,0.30,42.65
2,-0.03,1.02,0.10,43.44
2,-0.03,0.17,-0.08,42.97
2,-0.12,0.17,-0.08,40.84
2,-0.10,0.57,0.01,40.84
2,-0.11,1.39,0.19,42.37
2,0.01,1.39,0.23,44.12
2,0.02,1.84,0.23,44.12
2,-0.08,0.94,0.06,42.27
2,-0.08,0.94,-0.07,40.85
2,-0.13,0.15,-0.07,40.91
2,-0.02,0.62,0.06,40.91
2,-0.02,0.58,0.27,40.73
2,0.06,1.46,0.27,40.73
2,0.06,1.83,0.27,40.73
2,0.11,0.88,0.07,44.94
2,-0.08,0.88,0.11,43.34
2,-0.11,0.16,-0.08,43.34
2,-0.08,0.69,0.03,42.93
2,-0.08,0.69,0.21,40.89
2,-0.00,1.52,0.21,40.89
2,0.01,1.81,0.23,38.95
2,0.01,1.81,0.02,45.35
2,-0.07,0.81,0.02,41.03
2,-0.10,0.15,-0.08,41.03
2,-0.10,0.70,0.09,38.28
2,-0.02,0.70,0.11,40.60
2,0.05,1.55,0.29,40.60
2,0.03,1.74,0.27,42.47
2,0.03,1.74,0.03,37.09
2,-0.06,0.74,0.03,37.09
2,-0.13,0.16,-0.07,40.73
2,-0.13,0.14,0.06,39.30
2,-0.07,0.77,0.06,39.37
2,0.02,1.61,0.22,40.93
2,0.02,1.72,0.20,38.34
2,0.01,1.72,0.20,40.39
2,-0.10,0.70,0.01,40.39
2,-0.11,0.18,-0.07,40.72
2,-0.11,0.18,-0.08,42.37
2,0.00,0.83,0.11,42.37
2,0.06,1.65,0.30,42.86
2,0.06,1.64,0.25,39.62
2,0.01,1.64,0.25,39.50
2,-0.10,0.60,0.02,41.07
3,-0.09,0.22,-0.06,41.43
3,-0.00,0.93,0.15,40.97
3,-0.00,0.92,0.32,40.63
3,0.05,1.73,0.32,40.56
3,0.01,1.57,0.22,40.56
3,0.01,0.51,-0.02,39.26
3,-0.09,0.51,-0.02,39.78
3,-0.14,0.24,-0.06,39.78
3,-0.16,0.96,0.09,42.78
3,-0.03,0.96,0.11,38.60
3,0.03,1.74,0.24,38.60
3,-0.03,1.49,0.16,40.54
3,-0.03,1.49,-0.03,43.41
3,-0.11,0.46,-0.03,43.23
3,-0.08,0.29,-0.04,40.88
3,-0.08,0.30,0.17,40.40
3,0.02,1.05,0.17,41.38
3,0.07,1.79,0.30,41.38
3,0.11,1.45,0.19,41.49
3,-0.01,1.45,0.22,39.23
3,-0.12,0.40,-0.03,39.23
3,-0.10,0.36,-0.06,41.64
3,-0.10,0.36,0.13,40.92
3,-0.05,1.12,0.13,40.92
3,0.01,1.82,0.26,40.12
3,0.01,1.82,0.13,41.93
3,-0.04,1.38,0.13,41.64
3,-0.09,0.32,-0.07,41.64
3,-0.09,0.36,-0.01,40.21
3,-0.07,0.36,-0.05,42.09
3,0.02,1.14,0.20,42.09
3,0.06,1.83,0.32,42.98
3,0.06,1.83,0.16,41.47
3,-0.02,1.32,0.16,41.47
3,-0.12,0.29,-0.05,40.04
3,-0.12,0.28,-0.03,43.79
3,-0.10,0.40,-0.03,43.49
3,-0.02,1.19,0.14,45.84
3,-0.02,1.88,0.24,40.80
3,0.03,1.88,0.24,42.60
3,-0.04,1.27,0.11,42.60
3,-0.06,0.25,-0.06,39.88
3,-0.12,0.25,-0.12,40.67
3,-0.05,0.44,0.01,40.67
3,0.04,1.22,0.22,45.70
3,0.04,1.24,0.31,45.97
3,0.07,1.86,0.31,46.05
3,-0.04,1.16,0.13,43.70
3,-0.04,0.19,-0.07,43.26
3,-0.11,0.19,-0.07,40.36
3,-0.08,0.48,-0.02,40.36
3,-0.10,1.30,0.18,44.21
3,-0.04,1.30,0.14,44.04
3,0.01,1.89,0.27,44.04
3,-0.05,1.13,0.08,41.53
3,-0.05,1.13,-0.07,42.95
3,-0.11,0.20,-0.07,42.60
3,-0.05,0.52,0.03,40.25
3,-0.05,0.53,0.25,43.32
3,0.04,1.35,0.25,40.73
3,0.05,1.88,0.30,40.73
3,0.05,1.04,0.08,41.34
3,-0.03,1.04,0.12,42.04
3,-0.13,0.16,-0.07,42.04
3,-0.15,0.55,0.01,41.79
3,-0.09,0.55,0.18,41.13
3,0.01,1.39,0.18,41.13
3,0.02,1.86,0.23,42.34
3,0.02,1.83,0.07,42.49
3,-0.09,0.96,0.07,42.33
3,-0.12,0.15,-0.07,43.12
3,-0.12,0.61,0.05,43.78
3,-0.02,0.61,0.05,42.24
3,0.07,1.45,0.26,42.24
3,0.12,1.85,0.28,39.31
3,0.06,1.85,0.08,41.39
3,-0.08,0.90,0.08,41.39
3,-0.11,0.15,-0.08,43.29
3,-0.11,0.18,0.04,44.03
3,-0.09,0.68,0.04,44.09
3,-0.00,1.50,0.22,41.74
3,-0.00,1.81,0.22,39.39
3,0.00,1.81,0.22,41.81
3,-0.07,0.81,0.02,41.81
3,-0.11,0.14,-0.08,43.43
3,-0.11,0.14,-0.10,42.95
3,-0.02,0.69,0.09,42.95
3,0.05,1.54,0.29,41.06
3,0.05,1.54,0.27,40.66
3,0.04,1.76,0.27,40.37
3,-0.06,0.75,0.03,42.72
3,-0.06,0.78,-0.07,39.54
3,-0.14,0.16,-0.07,42.75
3,-0.05,0.76,0.05,42.75
3,-0.04,1.61,0.22,40.02
3,0.02,1.61,0.20,41.36
3,0.01,1.74,0.20,41.36
3,-0.10,0.71,0.01,41.43
3,-0.10,0.71,-0.07,42.16
3,-0.10,0.16,-0.07,42.16
3,0.00,0.80,0.11,43.11
3,0.00,0.76,0.29,42.45
3,0.05,1.63,0.29,42.57
3,0.01,1.66,0.25,42.57
3,0.01,0.62,0.02,39.71
3,-0.10,0.62,0.05,39.12
3,-0.11,0.18,-0.08,39.12
3,-0.12,0.88,0.08,41.67
3,-0.05,0.88,0.25,39.69
3,-0.00,1.68,0.25,39.69
3,-0.01,1.64,0.19,40.43
3,-0.01,1.65,-0.02,43.91
3,-0.08,0.59,-0.02,44.55
3,-0.10,0.22,-0.06,41.42
3,-0.10,0.92,0.14,39.64
3,-0.00,0.92,0.14,38.13
3,0.05,1.70,0.32,38.13
3,0.01,1.57,0.22,38.87
3,0.01,1.57,0.24,40.78
3,-0.10,0.51,-0.01,40.78
3,-0.13,0.23,-0.06,44.50
3,-0.13,0.21,0.09,44.77
3,-0.02,0.96,0.09,44.71
3,0.02,1.74,0.24,42.36
3,0.02,1.51,0.17,42.81
3,-0.03,1.51,0.17,40.88
3,-0.11,0.45,-0.03,40.88
3,-0.08,0.28,-0.04,40.94
3,-0.08,0.28,-0.01,40.02
3,0.02,1.04,0.18,40.02
3,0.06,1.79,0.31,40.09
3,0.06,1.79,0.20,44.65
3,-0.02,1.47,0.20,45.03
3,-0.11,0.40,-0.03,41.12
3,-0.11,0.40,-0.05,42.52
3,-0.11,0.34,-0.05,43.94
3,-0.05,1.09,0.13,43.94
3,-0.05,1.80,0.25,41.83
3,0.02,1.80,0.26,41.83
3,-0.02,1.40,0.13,41.83
3,-0.10,0.32,-0.07,42.37
3,-0.10,0.32,-0.01,39.18
3,-0.08,0.35,-0.01,39.18
3,0.02,1.13,0.20,40.70
3,0.02,1.14,0.31,40.59
3,0.06,1.83,0.31,40.39
3,-0.01,1.34,0.16,41.18
3,-0.01,0.30,-0.05,37.28
3,-0.13,0.30,-0.05,40.83
3,-0.09,0.40,-0.03,40.83
3,-0.08,1.20,0.14,42.80
3,-0.02,1.20,0.25,42.70
3,0.03,1.88,0.25,42.70
3,-0.04,1.28,0.11,42.17
3,-0.04,1.30,-0.07,45.41
3,-0.12,0.24,-0.07,45.75
3,-0.05,0.43,0.00,43.40
3,-0.05,1.22,0.22,43.35
3,0.04,1.22,0.22,40.95
3,0.06,1.87,0.31,40.95
3,0.08,1.18,0.14,39.83
3,-0.04,1.18,0.18,44.82
3,-0.10,0.19,-0.07,44.82
3,-0.10,0.48,-0.02,41.58
3,-0.10,0.48,0.18,40.17
3,-0.03,1.28,0.18,40.33
3,0.02,1.90,0.26,43.47
3,0.02,1.88,0.08,43.07
3,-0.04,1.13,0.08,43.39
3,-0.13,0.20,-0.07,43.39
3,-0.18,0.50,0.03,43.22
3,-0.05,0.50,0.06,41.42
3,0.05,1.33,0.25,41.42
3,0.06,1.88,0.31,42.31
3,0.06,1.88,0.08,39.45
3,-0.03,1.04,0.08,39.45
3,-0.14,0.15,-0.07,41.10
3,-0.14,0.16,0.00,40.02
3,-0.08,0.54,0.00,42.61
3,0.01,1.39,0.19,42.61
3,0.01,1.88,0.24,42.80
3,0.02,1.88,0.20,40.50
3,-0.08,0.97,0.07,40.50
3,-0.11,0.14,-0.08,41.96
3,-0.11,0.14,0.05,38.79
3,-0.02,0.61,0.05,38.79
3,0.06,1.46,0.27,37.62
3,0.06,1.49,0.28,40.91
3,0.06,1.86,0.28,41.37
3,-0.08,0.90,0.07,39.80
3,-0.08,0.14,-0.09,43.78
3,-0.11,0.14,-0.09,40.88
3,-0.10,0.66,0.04,40.88
3,-0.12,1.49,0.21,41.05
3,0.00,1.49,0.23,40.19
3,0.01,1.83,0.23,40.19
3,-0.07,0.82,0.02,41.31
3,-0.07,0.82,-0.08,45.04
3,-0.11,0.13,-0.08,45.11
3,-0.02,0.68,0.09,42.76
3,-0.02,1.54,0.29,42.81
3,0.05,1.54,0.29,43.42
3,0.04,1.79,0.27,43.42
3,0.05,0.76,0.04,41.18
3,-0.08,0.76,0.05,42.44
3,-0.13,0.15,-0.07,42.44
3,-0.05,0.76,0.04,40.68
3,-0.05,0.76,0.22,41.48
3,0.02,1.61,0.22,41.83
3,0.00,1.75,0.21,41.04
3,0.00,1.76,0.01,42.29
3,-0.10,0.70,0.01,42.92
3,-0.10,0.15,-0.08,42.92
3,-0.10,0.80,0.11,39.60
3,0.00,0.80,0.11,40.05
3,0.06,1.63,0.30,40.05
3,-0.00,1.68,0.26,42.67
3,-0.00,1.68,0.01,44.13
3,-0.08,0.61,0.01,44.13
3,-0.12,0.18,-0.07,39.25
3,-0.12,0.13,0.08,39.68
3,-0.06,0.88,0.08,39.26
3,0.01,1.68,0.24,40.05
3,0.01,1.64,0.19,39.00
3,-0.01,1.64,0.16,43.93
3,-0.08,0.57,-0.02,43.93
3,-0.11,0.20,-0.05,40.49
3,-0.11,0.20,0.15,42.67
3,0.00,0.93,0.15,42.67
3,0.06,1.71,0.31,43.33
3,0.06,1.70,0.21,44.69
3,0.02,1.58,0.21,44.68
3,-0.11,0.49,-0.01,39.19
4,-0.07,0.28,-0.05,40.71
4,0.02,1.05,0.17,43.68
4,0.02,1.04,0.31,43.26
4,0.06,1.79,0.31,43.68
4,-0.02,1.47,0.20,42.12
4,-0.02,0.38,-0.04,42.07
4,-0.11,0.38,-0.05,40.87
4,-0.12,0.35,-0.05,40.87
4,-0.11,1.09,0.13,40.76
4,-0.05,1.09,0.26,45.18
4,0.02,1.81,0.26,45.18
4,-0.02,1.39,0.13,42.42
4,-0.02,1.43,-0.06,40.06
4,-0.11,0.31,-0.06,40.51
4,-0.08,0.36,-0.01,40.51
4,-0.08,1.14,0.20,38.17
4,0.03,1.14,0.20,40.47
4,0.08,1.84,0.31,40.47
4,0.11,1.33,0.16,44.11
4,-0.02,1.33,0.14,39.36
4,-0.14,0.27,-0.05,39.36
4,-0.08,0.40,-0.05,42.45
4,-0.08,0.40,0.15,39.08
4,-0.02,1.21,0.15,38.64
4,0.02,1.89,0.25,41.77
4,0.02,1.89,0.11,40.11
4,-0.05,1.27,0.11,41.47
4,-0.12,0.22,-0.07,41.47
4,-0.11,0.44,-0.00,41.98
4,-0.05,0.44,-0.03,43.72
4,0.04,1.22,0.22,43.72
4,0.06,1.87,0.31,41.98
4,0.06,1.87,0.14,45.50
4,-0.04,1.17,0.14,45.83
4,-0.10,0.19,-0.07,43.48
4,-0.10,0.25,-0.01,40.70
4,-0.11,0.50,-0.01,43.45
4,-0.02,1.30,0.18,43.45
4,-0.02,1.90,0.25,43.35
4,0.03,1.90,0.26,41.85
4,-0.04,1.11,0.07,41.85
4,-0.00,0.19,-0.07,44.94
4,-0.13,0.19,0.03,43.45
4,-0.04,0.52,0.03,43.45
4,0.05,1.35,0.25,42.61
4,0.05,1.32,0.30,42.22
4,0.06,1.88,0.30,41.69
4,-0.04,1.02,0.08,46.39
4,-0.04,0.14,-0.07,42.77
4,-0.13,0.14,-0.07,43.18
4,-0.07,0.55,0.00,43.18
4,-0.12,1.41,0.19,42.26
4,0.00,1.41,0.25,44.63
4,0.01,1.88,0.25,44.63
4,-0.09,0.95,0.06,41.25
4,-0.09,0.96,-0.08,40.33
4,-0.09,0.15,-0.08,40.58
4,-0.02,0.62,0.06,40.58
4,-0.02,1.47,0.27,40.39
4,0.05,1.47,0.27,42.87
4,0.05,1.86,0.29,42.87
4,0.05,0.88,0.07,42.14
4,-0.07,0.88,0.10,41.60
4,-0.12,0.14,-0.09,41.60
4,-0.09,0.67,0.04,40.54
4,-0.09,0.67,0.21,41.91
4,0.01,1.50,0.21,41.62
4,0.02,1.81,0.22,40.05
4,0.02,1.80,0.02,38.90
4,-0.07,0.80,0.02,43.54
4,-0.11,0.13,-0.07,43.54
4,-0.11,0.71,0.09,41.81
4,-0.02,0.71,0.10,43.68
4,0.06,1.56,0.29,43.68
4,0.05,1.78,0.26,39.31
4,0.05,1.78,0.04,40.45
4,-0.09,0.73,0.04,40.45
4,-0.12,0.15,-0.08,41.36
4,-0.12,0.17,0.05,39.50
4,-0.05,0.79,0.05,39.53
4,0.01,1.62,0.23,40.32
4,0.01,1.75,0.21,40.08
4,-0.01,1.75,0.25,44.77
4,-0.09,0.68,-0.00,44.77
4,-0.10,0.16,-0.08,42.61
4,-0.10,0.16,0.12,40.28
4,-0.00,0.82,0.12,40.28
4,0.05,1.64,0.30,42.42
4,0.05,1.66,0.26,41.07
4,-0.00,1.66,0.26,40.88
4,-0.08,0.59,0.01,40.88
4,-0.08,0.19,-0.07,37.93
4,-0.13,0.19,-0.07,43.42
4,-0.05,0.89,0.08,43.42
4,-0.05,1.69,0.24,41.89
4,0.01,1.69,0.24,44.71
4,-0.00,1.63,0.18,44.71
4,-0.09,0.56,-0.02,40.16
4,-0.09,0.56,-0.05,43.00
4,-0.10,0.22,-0.05,42.52
4,0.01,0.95,0.15,40.96
4,0.01,1.72,0.31,41.03
4,0.06,1.72,0.31,41.06
4,0.01,1.56,0.21,41.06
4,0.01,0.46,-0.01,41.14
4,-0.11,0.46,-0.01,39.47
4,-0.10,0.25,-0.07,39.47
4,-0.03,0.99,0.10,41.36
4,-0.03,0.99,0.25,41.37
4,0.01,1.75,0.25,40.75
4,-0.04,1.51,0.17,43.89
4,-0.04,1.54,-0.04,38.94
4,-0.11,0.41,-0.04,42.55
4,-0.07,0.31,-0.04,42.55
4,-0.07,1.06,0.18,40.82
4,0.02,1.06,0.13,42.25
4,0.06,1.79,0.32,42.25
4,0.04,1.45,0.20,45.51
4,-0.02,1.45,-0.04,39.86
4,-0.10,0.36,-0.04,39.86
4,-0.12,0.36,-0.05,40.36
4,-0.12,0.34,0.13,38.57
4,-0.04,1.09,0.13,38.65
4,0.03,1.82,0.25,37.86
4,0.03,1.37,0.12,42.40
4,-0.02,1.37,0.12,41.33
4,-0.13,0.29,-0.06,41.33
4,-0.13,0.38,-0.01,43.63
4,-0.07,0.38,0.21,42.99
4,0.03,1.16,0.21,42.99
4,0.08,1.84,0.31,41.20
4,0.08,1.87,0.15,42.64
4,-0.02,1.31,0.15,42.79
4,-0.13,0.26,-0.05,38.87
4,-0.13,0.42,-0.04,45.57
4,-0.08,0.42,-0.04,43.49
4,-0.03,1.23,0.15,43.49
4,-0.05,1.90,0.25,41.36
4,0.02,1.90,0.30,39.58
4,-0.04,1.24,0.11,39.58
4,-0.12,0.21,-0.07,42.43
4,-0.12,0.21,0.01,42.56
4,-0.05,0.46,0.01,42.43
4,0.04,1.23,0.22,41.64
4,0.04,1.20,0.32,44.23
4,0.05,1.88,0.32,40.88
4,-0.04,1.13,0.12,40.88
4,-0.05,0.17,-0.07,40.26
4,-0.11,0.17,-0.06,40.35
4,-0.10,0.50,-0.00,40.35
4,-0.00,1.31,0.18,42.87
4,-0.00,1.31,0.25,42.72
4,0.03,1.90,0.25,42.72
4,-0.05,1.08,0.07,40.03
4,-0.05,1.12,-0.06,39.58
4,-0.14,0.18,-0.06,39.55
4,-0.04,0.53,0.04,41.12
4,-0.04,1.38,0.25,40.17
4,0.05,1.38,0.24,41.73
4,0.07,1.88,0.30,41.73
4,0.06,0.99,0.09,41.19
4,-0.06,0.99,-0.08,42.75
4,-0.13,0.13,-0.08,42.75
4,-0.08,0.58,0.01,39.31
4,-0.08,0.61,0.20,41.92
4,-0.00,1.43,0.20,42.05
4,-0.00,1.88,0.24,41.26
4,-0.00,0.92,0.05,43.52
4,-0.09,0.92,0.05,39.50
4,-0.09,0.14,-0.08,39.50
4,-0.08,0.65,0.07,38.39
4,-0.02,0.65,0.09,44.18
4,0.05,1.49,0.28,44.18
4,0.05,1.85,0.28,40.26
4,0.05,1.85,0.05,40.39
4,-0.07,0.85,0.05,40.09
4,-0.13,0.14,-0.09,44.79
4,-0.13,0.70,0.04,44.38
4,-0.09,0.70,0.04,37.64
4,0.02,1.52,0.21,37.64
4,0.01,1.80,0.22,41.99
4,0.01,1.80,0.21,39.63
4,-0.09,0.77,0.02,39.63
4,-0.11,0.13,-0.07,41.91
4,-0.11,0.13,0.10,39.71
4,-0.01,0.73,0.10,39.37
4,0.06,1.59,0.29,39.37
4,0.06,1.57,0.26,40.24
4,0.04,1.76,0.26,42.64
4,-0.10,0.69,0.03,42.64
4,-0.10,0.16,-0.08,41.43
4,-0.12,0.16,-0.07,42.48
4,-0.05,0.82,0.06,42.48
4,-0.00,1.65,0.23,39.95
4,-0.00,1.65,0.21,40.94
4,-0.01,1.73,0.21,40.94
4,-0.08,0.63,-0.01,40.35
4,-0.08,0.67,-0.08,43.48
4,-0.10,0.17,-0.08,43.53
4,-0.00,0.85,0.13,42.74
4,-0.00,1.66,0.31,44.43
4,0.04,1.66,0.31,43.65
4,0.00,1.64,0.25,43.65
4,0.05,0.55,-0.00,41.97
4,-0.08,0.55,-0.06,42.09
4,-0.13,0.20,-0.06,42.09
4,-0.04,0.92,0.09,41.98
4,-0.04,0.90,0.24,45.21
4,0.03,1.71,0.24,45.08
4,-0.01,1.61,0.17,40.38
4,-0.01,0.51,-0.03,44.18
4,-0.11,0.51,-0.03,42.39
4,-0.10,0.23,-0.05,42.39
4,-0.12,0.99,0.16,44.57
4,0.01,0.99,0.18,45.11
4,0.07,1.75,0.31,45.11
4,-0.00,1.53,0.20,41.38
4,-0.00,1.53,-0.02,40.71
4,-0.12,0.41,-0.02,41.20
4,-0.10,0.28,-0.08,43.55
4,-0.10,0.28,0.12,42.07
4,-0.04,1.03,0.12,43.82
4,0.01,1.78,0.26,43.82
4,0.02,1.47,0.16,44.08
4,-0.04,1.47,0.13,40.22
4,-0.09,0.36,-0.06,40.22
4,-0.07,0.33,-0.03,39.77
4,-0.07,0.33,0.19,40.28
4,0.02,1.10,0.19,40.28
4,0.05,1.82,0.32,40.85
4,0.05,1.85,0.18,43.88
4,-0.02,1.41,0.18,39.05
5,-0.13,0.25,0.00,42.52
5,-0.06,0.40,0.00,42.93
5,0.04,1.19,0.21,39.79
5,0.04,1.17,0.31,42.33
5,0.07,1.85,0.31,44.06
5,-0.04,1.24,0.14,44.06
5,-0.05,0.22,-0.06,38.74
5,-0.11,0.22,-0.03,43.24
5,-0.08,0.47,-0.03,43.24
5,-0.04,1.27,0.17,40.24
5,-0.04,1.27,0.26,44.09
5,0.01,1.91,0.26,44.09
5,-0.05,1.18,0.09,38.87
5,-0.05,1.18,-0.08,38.49
5,-0.12,0.18,-0.08,40.17
5,-0.05,0.50,0.03,40.17
5,-0.05,1.29,0.24,39.92
5,0.04,1.29,0.25,43.63
5,0.05,1.88,0.31,43.63
5,0.03,1.07,0.10,40.21
5,-0.03,1.07,-0.08,40.38
5,-0.12,0.15,-0.08,40.38
5,-0.09,0.52,0.00,42.17
5,-0.09,0.56,0.18,43.98
5,0.01,1.37,0.18,44.48
5,0.03,1.89,0.25,43.70
5,0.03,1.03,0.06,45.04
5,-0.07,1.03,0.06,40.22
5,-0.13,0.16,-0.07,40.22
5,-0.16,0.57,0.05,42.02
5,-0.03,0.57,0.01,42.51
5,0.06,1.43,0.26,42.51
5,0.07,1.87,0.29,37.59
5,0.07,1.87,0.08,39.28
5,-0.08,0.92,0.08,39.16
5,-0.11,0.12,-0.08,43.08
5,-0.11,0.64,0.02,39.59
5,-0.08,0.64,0.02,40.42
5,0.00,1.46,0.21,40.42
5,0.06,1.87,0.24,42.83
5,-0.00,1.87,0.22,40.72
5,-0.08,0.84,0.03,40.72
5,-0.10,0.13,-0.09,41.25
5,-0.10,0.13,0.08,39.79
5,-0.03,0.69,0.08,39.77
5,0.05,1.53,0.29,43.69
5,0.05,1.52,0.28,41.18
5,0.04,1.83,0.28,42.83
5,-0.07,0.78,0.03,42.83
5,-0.07,0.14,-0.07,42.84
5,-0.14,0.14,-0.08,42.01
5,-0.07,0.74,0.05,42.01
5,0.02,1.57,0.21,44.95
5,0.02,1.57,0.21,40.35
5,0.01,1.78,0.21,40.35
5,-0.11,0.71,0.01,39.05
5,-0.11,0.70,-0.06,38.81
5,-0.11,0.14,-0.06,38.92
5,0.00,0.78,0.11,42.84
5,0.00,1.63,0.30,41.72
5,0.06,1.63,0.30,42.21
5,0.02,1.71,0.25,42.21
5,0.03,0.64,0.02,41.44
5,-0.10,0.64,-0.08,39.83
5,-0.12,0.17,-0.08,39.83
5,-0.05,0.88,0.07,38.99
5,-0.05,0.93,0.24,42.76
5,-0.01,1.68,0.24,42.32
5,-0.01,1.68,0.20,41.53
5,-0.01,0.57,-0.03,42.15
5,-0.08,0.57,-0.03,42.21
5,-0.09,0.19,-0.06,42.21
5,-0.12,0.91,0.15,43.53
5,0.00,0.91,0.13,38.17
5,0.06,1.69,0.32,38.17
5,0.00,1.60,0.23,41.85
5,0.00,1.60,-0.01,47.46
5,-0.09,0.48,-0.01,47.59
5,-0.14,0.22,-0.06,38.97
5,-0.14,0.21,0.09,42.61
5,-0.02,0.96,0.09,42.58
5,0.02,1.75,0.24,42.58
5,0.03,1.56,0.17,41.80
5,-0.03,1.56,0.16,43.83
5,-0.12,0.44,-0.03,43.83
5,-0.09,0.28,-0.04,40.65
5,-0.09,0.28,0.17,40.44
5,0.02,1.04,0.17,40.44
5,0.07,1.78,0.31,44.22
5,0.07,1.79,0.19,40.63
5,-0.01,1.47,0.19,42.63
5,-0.11,0.37,-0.04,42.63
5,-0.11,0.32,-0.06,44.35
5,-0.10,0.32,-0.05,41.66
5,-0.05,1.08,0.13,41.66
5,-0.05,1.80,0.26,40.08
5,0.01,1.80,0.15,41.47
5,-0.04,1.41,0.15,41.47
5,-0.10,0.31,-0.06,43.52
5,-0.10,0.37,-0.02,41.63
5,-0.07,0.37,-0.02,42.15
5,0.03,1.14,0.20,42.93
5,0.03,1.83,0.32,39.82
5,0.06,1.83,0.32,41.45
5,-0.02,1.36,0.16,41.45
5,-0.06,0.27,-0.05,39.61
5,-0.12,0.27,-0.03,45.70
5,-0.10,0.42,-0.03,45.70
5,-0.02,1.20,0.15,40.09
5,-0.02,1.23,0.24,40.96
5,0.03,1.86,0.24,41.04
5,-0.04,1.26,0.10,41.83
5,-0.04,0.20,-0.06,40.61
5,-0.13,0.20,-0.06,46.54
5,-0.05,0.44,0.01,46.54
5,-0.02,1.22,0.22,42.50
5,0.05,1.22,0.24,39.72
5,0.07,1.88,0.31,39.72
5,-0.04,1.17,0.13,41.55
5,-0.04,1.17,-0.07,40.44
5,-0.11,0.17,-0.07,40.27
5,-0.08,0.50,-0.02,41.05
5,-0.08,0.55,0.17,45.24
5,-0.02,1.30,0.17,41.55
5,0.01,1.93,0.26,41.55
5,0.01,1.11,0.08,41.94
5,-0.05,1.11,0.12,40.63
5,-0.12,0.17,-0.07,40.63
5,-0.05,0.52,0.03,42.50
5,-0.05,0.52,0.25,44.21
5,0.04,1.35,0.25,44.21
5,0.05,1.87,0.31,41.74
5,0.05,1.82,0.08,42.18
5,-0.04,1.01,0.08,41.79
5,-0.14,0.13,-0.07,41.79
5,-0.14,0.56,0.01,39.07
5,-0.07,0.56,0.01,42.78
5,0.02,1.41,0.19,42.78
5,0.02,1.88,0.25,41.31
5,0.02,1.88,0.06,42.97
5,-0.10,0.95,0.06,42.97
5,-0.11,0.14,-0.08,40.56
5,-0.11,0.13,0.06,41.47
5,-0.02,0.63,0.06,41.95
5,0.07,1.47,0.27,39.60
5,0.07,1.88,0.28,40.04
5,0.06,1.88,0.28,39.90
5,-0.08,0.86,0.07,39.90
5,-0.11,0.12,-0.09,41.67
5,-0.11,0.12,-0.09,42.29
5,-0.08,0.70,0.04,42.29
5,0.00,1.51,0.22,42.67
5,0.00,1.51,0.23,41.52
5,-0.00,1.83,0.23,41.48
5,-0.07,0.77,0.01,42.26
5,-0.07,0.14,-0.07,43.78
5,-0.09,0.14,-0.07,41.57
5,-0.02,0.72,0.10,41.57
5,-0.02,1.57,0.30,40.65
5,0.04,1.57,0.26,39.69
5,0.04,1.79,0.26,39.69
5,-0.08,0.71,0.02,41.23
5,-0.08,0.71,-0.07,39.61
5,-0.14,0.16,-0.07,39.61
5,-0.05,0.79,0.05,41.03
5,-0.05,0.75,0.22,40.20
5,0.02,1.63,0.22,40.91
5,0.00,1.74,0.20,40.91
5,0.00,0.65,-0.01,41.54
5,-0.11,0.65,-0.01,43.00
5,-0.10,0.15,-0.07,43.00
5,-0.12,0.84,0.12,41.56
5,0.01,0.84,0.30,40.50
5,0.06,1.67,0.30,40.50
5,-0.00,1.66,0.25,40.05
5,-0.00,1.68,0.01,40.21
5,-0.10,0.56,0.01,40.35
5,-0.11,0.19,-0.08,43.48
5,-0.11,0.93,0.09,42.93
5,-0.05,0.93,0.09,44.06
5,-0.00,1.72,0.25,44.06
5,-0.02,1.63,0.18,43.64
5,-0.02,1.63,0.15,38.71
5,-0.08,0.51,-0.04,38.71
5,-0.10,0.23,-0.05,41.44
5,-0.10,0.22,0.16,45.07
5,0.00,0.97,0.16,45.28
5,0.06,1.73,0.31,41.36
5,0.06,1.54,0.20,41.21
5,0.00,1.54,0.20,40.73
5,-0.11,0.42,-0.02,40.73
5,-0.12,0.26,-0.06,42.27
5,-0.12,0.26,-0.02,42.16
5,-0.02,1.01,0.10,42.16
5,0.02,1.78,0.24,42.72
5,0.02,1.78,0.15,39.78
5,-0.04,1.48,0.15,39.69
5,-0.11,0.38,-0.04,40.47
5,-0.11,0.39,-0.03,42.20
5,-0.07,0.32,-0.03,41.90
5,0.03,1.10,0.19,41.90
5,0.03,1.82,0.30,40.88
5,0.08,1.82,0.31,45.41
5,-0.03,1.42,0.18,45.41
5,-0.12,0.32,-0.05,41.71
5,-0.12,0.32,-0.05,45.75
5,-0.09,0.38,-0.05,45.75
5,-0.04,1.14,0.14,43.36
5,-0.04,1.14,0.26,44.50
5,0.02,1.82,0.26,43.95
5,-0.03,1.34,0.11,42.38
5,-0.03,0.25,-0.07,47.24
5,-0.11,0.25,-0.06,43.23
5,-0.07,0.41,-0.00,43.23
5,-0.10,1.18,0.22,38.06
5,0.03,1.18,0.31,39.53
5,0.06,1.86,0.31,39.53
5,-0.02,1.26,0.14,42.63
5,-0.02,1.28,-0.06,44.11
5,-0.13,0.22,-0.06,44.55
5,-0.09,0.45,-0.03,40.64
5,-0.09,1.27,0.16,40.18
5,-0.01,1.27,0.16,39.90
5,0.03,1.90,0.24,39.90
5,0.01,1.19,0.09,43.10
5,-0.05,1.19,0.12,41.69
5,-0.14,0.17,-0.07,41.69
5,-0.03,0.49,0.02,41.03
5,-0.03,0.49,0.23,38.74
5,0.05,1.28,0.23,38.94
5,0.06,1.89,0.31,39.72
5,0.06,1.09,0.12,43.51
6,-0.12,0.15,-0.08,40.68
6,-0.12,0.13,0.05,40.42
6,-0.04,0.57,0.05,40.26
6,0.05,1.42,0.27,43.40
6,0.05,1.88,0.30,40.32
6,0.06,1.88,0.31,44.17
6,-0.05,0.93,0.06,44.17
6,-0.01,0.12,-0.07,40.84
6,-0.14,0.12,0.02,39.56
6,-0.07,0.62,0.02,39.56
6,0.03,1.46,0.20,40.98
6,0.03,1.49,0.23,38.94
6,0.02,1.86,0.23,38.67
6,-0.10,0.84,0.05,42.59
6,-0.10,0.13,-0.08,37.66
6,-0.10,0.13,-0.08,45.51
6,-0.02,0.70,0.08,45.51
6,-0.00,1.54,0.28,43.48
6,0.06,1.54,0.27,41.83
6,0.04,1.85,0.27,41.83
6,-0.08,0.78,0.05,44.12
6,-0.08,0.78,-0.09,43.10
6,-0.11,0.15,-0.09,43.05
6,-0.08,0.75,0.05,41.48
6,-0.08,1.57,0.23,41.34
6,-0.01,1.57,0.23,44.51
6,0.00,1.79,0.22,44.51
6,0.05,0.69,-0.00,46.48
6,-0.08,0.69,-0.00,38.98
6,-0.10,0.15,-0.06,38.98
6,-0.01,0.78,0.12,42.05
6,-0.01,0.78,0.30,42.07
6,0.05,1.62,0.30,42.07
6,0.02,1.72,0.25,37.99
6,0.02,1.75,0.02,40.55
6,-0.10,0.62,0.02,43.26
6,-0.14,0.18,-0.07,43.26
6,-0.14,0.88,0.07,45.54
6,-0.03,0.88,0.10,42.47
6,0.03,1.68,0.23,42.47
6,0.05,1.69,0.20,43.64
6,-0.02,1.69,-0.01,38.61
6,-0.10,0.56,-0.01,38.61
6,-0.09,0.19,-0.06,41.51
6,-0.09,0.23,0.14,43.34
6,0.01,0.91,0.14,43.53
6,0.06,1.71,0.31,40.40
6,0.06,1.60,0.23,40.82
6,-0.02,1.60,0.23,39.73
6,-0.10,0.47,-0.02,39.73
6,-0.12,0.24,-0.07,42.19
6,-0.12,0.24,-0.08,44.04
6,-0.05,0.98,0.10,44.04
6,0.01,1.76,0.26,41.01
6,0.01,1.79,0.16,45.27
6,-0.02,1.54,0.16,45.20
6,-0.09,0.44,-0.04,45.20
6,-0.09,0.28,-0.03,40.63
6,-0.10,0.28,-0.03,39.66
6,0.01,1.03,0.17,39.66
6,0.00,1.78,0.31,44.57
6,0.07,1.78,0.31,42.57
6,0.00,1.47,0.19,42.57
6,-0.13,0.36,-0.04,42.92
6,-0.13,0.36,-0.05,41.61
6,-0.10,0.32,-0.05,42.11
6,-0.02,1.08,0.12,39.76
6,-0.02,1.11,0.25,40.51
6,0.02,1.80,0.25,39.72
6,-0.05,1.40,0.14,39.72
6,-0.06,0.30,-0.05,42.49
6,-0.12,0.30,-0.01,42.74
6,-0.05,0.38,-0.01,42.74
6,0.04,1.18,0.20,41.15
6,0.04,1.18,0.31,42.44
6,0.06,1.84,0.31,42.44
6,-0.03,1.34,0.15,39.06
6,-0.03,1.31,-0.06,42.27
6,-0.12,0.25,-0.06,42.80
6,-0.11,0.44,-0.03,42.80
6,-0.11,1.21,0.16,44.14
6,-0.04,1.21,0.19,44.74
6,0.02,1.86,0.25,44.74
6,0.03,1.24,0.10,41.05
6,-0.03,1.24,-0.07,38.66
6,-0.12,0.20,-0.07,38.66
6,-0.05,0.45,0.02,47.05
6,-0.05,0.49,0.23,42.97
6,0.04,1.24,0.23,43.01
6,0.07,1.88,0.31,41.44
6,0.07,1.15,0.12,41.01
6,-0.03,1.15,0.12,41.03
6,-0.13,0.17,-0.06,41.03
6,-0.19,0.50,-0.01,44.61
6,-0.06,0.50,-0.01,37.57
6,0.00,1.33,0.18,37.57
6,0.02,1.91,0.25,43.01
6,0.02,1.91,0.08,44.55
6,-0.06,1.10,0.08,44.32
6,-0.12,0.15,-0.08,40.41
6,-0.12,0.54,0.03,40.97
6,-0.03,0.54,0.03,41.21
6,0.05,1.36,0.25,41.21
6,0.06,1.88,0.30,43.45
6,0.06,1.88,0.27,41.04
6,-0.06,0.99,0.08,41.04
6,-0.11,0.11,-0.09,41.01
6,-0.11,0.11,0.03,40.30
6,-0.10,0.59,0.03,39.92
6,-0.00,1.41,0.20,45.40
6,-0.00,1.40,0.24,42.66
6,0.02,1.90,0.24,42.06
6,-0.07,0.92,0.05,42.06
6,-0.07,0.14,-0.08,40.71
6,-0.11,0.14,-0.12,41.14
6,-0.03,0.64,0.07,41.14
6,-0.00,1.49,0.28,42.26
6,0.06,1.49,0.28,41.60
6,0.06,1.88,0.28,41.60
6,-0.08,0.82,0.06,41.82
6,-0.08,0.87,-0.08,40.29
6,-0.14,0.12,-0.08,40.61
6,-0.06,0.70,0.03,45.31
6,-0.06,1.52,0.21,41.50
6,0.02,1.52,0.21,43.63
6,0.00,1.84,0.22,43.63
6,0.03,0.74,0.02,40.84
6,-0.10,0.74,-0.08,40.40
6,-0.08,0.13,-0.08,40.40
6,-0.01,0.76,0.10,45.86
6,-0.01,0.79,0.29,37.85
6,0.06,1.61,0.29,37.66
6,0.02,1.78,0.26,39.23
6,0.02,0.67,0.02,40.84
6,-0.09,0.67,0.02,44.61
6,-0.12,0.17,-0.08,44.61
6,-0.12,0.82,0.07,41.76
6,-0.06,0.82,0.11,38.96
6,0.01,1.64,0.24,38.96
6,0.01,1.72,0.19,42.37
6,0.01,1.72,-0.03,41.99
6,-0.08,0.60,-0.03,41.46
6,-0.11,0.17,-0.06,43.81
6,-0.11,0.17,0.14,38.85
6,-0.00,0.86,0.14,43.50
6,0.06,1.68,0.31,43.50
6,0.01,1.65,0.22,45.69
6,0.01,1.65,0.19,41.32
6,-0.11,0.52,0.00,41.32
6,-0.11,0.21,-0.06,40.89
6,-0.11,0.21,0.08,44.14
6,-0.02,0.94,0.08,44.14
6,0.01,1.74,0.25,41.92
6,0.01,1.73,0.18,40.93
6,-0.03,1.61,0.18,46.32
6,-0.10,0.47,-0.03,46.32
6,-0.10,0.26,-0.05,41.86
6,-0.09,0.26,-0.02,40.83
6,0.01,1.00,0.17,40.83
6,0.06,1.77,0.31,39.55
6,0.06,1.77,0.21,42.32
6,-0.02,1.50,0.21,42.32
6,-0.10,0.38,-0.04,41.71
6,-0.10,0.42,-0.06,39.16
6,-0.12,0.29,-0.06,39.88
6,-0.05,1.04,0.13,46.93
6,-0.05,1.80,0.25,39.24
6,0.02,1.80,0.25,38.54
6,-0.03,1.43,0.15,38.54
6,-0.05,0.35,-0.05,41.01
6,-0.11,0.35,-0.01,40.12
6,-0.07,0.33,-0.01,40.12
6,0.03,1.13,0.20,43.08
6,0.03,1.13,0.30,47.06
6,0.07,1.82,0.30,47.01
6,-0.01,1.38,0.16,40.74
6,-0.01,0.28,-0.05,40.57
6,-0.14,0.28,-0.05,39.44
6,-0.09,0.38,-0.04,39.44
6,-0.08,1.17,0.14,39.33
6,-0.02,1.17,0.13,41.47
6,0.01,1.84,0.25,41.47
6,-0.05,1.30,0.12,42.94
6,-0.05,1.30,-0.07,41.78
6,-0.12,0.21,-0.07,41.69
6,-0.05,0.43,0.00,38.56
6,-0.05,0.41,0.22,42.57
6,0.04,1.23,0.22,39.53
6,0.05,1.86,0.31,39.53
6,0.05,1.21,0.14,42.87
6,-0.05,1.21,0.13,42.23
6,-0.13,0.19,-0.06,42.23
6,-0.10,0.50,-0.02,41.66
6,-0.10,0.50,0.18,41.19
6,-0.02,1.29,0.18,41.19
6,0.03,1.90,0.25,40.68
6,0.03,1.88,0.07,41.22
6,-0.04,1.13,0.07,41.14
6,-0.13,0.16,-0.07,42.71
6,-0.13,0.51,0.04,40.29
6,-0.04,0.51,0.04,40.84
6,0.05,1.32,0.24,40.84
6,0.06,1.87,0.30,40.39
6,0.06,1.87,0.09,41.08
6,-0.05,1.03,0.09,41.08
6,-0.13,0.12,-0.07,41.94
6,-0.13,0.12,-0.00,40.60
6,-0.06,0.56,-0.00,39.91
6,-0.01,1.41,0.19,42.26
6,-0.01,1.91,0.25,44.60
6,0.01,1.91,0.25,41.85
6,-0.09,0.99,0.06,41.85
6,-0.10,0.13,-0.08,39.71
6,-0.10,0.13,-0.07,41.31
6,-0.02,0.63,0.05,41.31
6,0.06,1.45,0.27,39.26
6,0.06,1.45,0.29,44.41
6,0.05,1.88,0.29,44.18
6,-0.06,0.86,0.06,43.40
6,-0.06,0.87,-0.09,42.39
6,-0.12,0.12,-0.09,42.51
6,-0.09,0.67,0.03,42.51
6,-0.11,1.48,0.21,43.36
6,0.02,1.48,0.23,44.29
6,0.01,1.86,0.23,44.29
6,-0.09,0.79,0.02,41.84
6,-0.09,0.79,-0.08,40.59
6,-0.11,0.13,-0.08,40.59
6,-0.01,0.73,0.10,40.86
6,-0.01,0.69,0.29,40.02
6,0.06,1.57,0.29,44.23
6,0.05,1.82,0.26,44.23
7,-0.10,0.63,-0.00,41.62
7,-0.09,0.17,-0.08,43.19
7,-0.09,0.84,0.12,43.73
7,0.00,0.84,0.12,44.78
7,0.05,1.65,0.30,44.78
7,0.06,1.69,0.25,39.28
7,-0.00,1.69,0.00,43.51
7,-0.08,0.56,0.00,43.51
7,-0.13,0.22,-0.07,39.99
7,-0.13,0.22,0.08,42.29
7,-0.04,0.91,0.08,42.55
7,0.02,1.71,0.24,42.55
7,0.02,1.64,0.17,43.36
7,-0.00,1.64,0.17,45.64
7,-0.10,0.51,-0.03,45.64
7,-0.10,0.23,-0.05,45.84
7,-0.10,0.23,-0.03,44.87
7,0.01,0.96,0.15,44.87
7,0.07,1.73,0.31,42.15
7,0.07,1.73,0.20,38.22
7,-0.01,1.54,0.20,37.90
7,-0.12,0.41,-0.01,41.82
7,-0.12,0.27,-0.06,41.84
7,-0.11,0.27,-0.06,45.85
7,-0.03,1.02,0.11,45.85
7,-0.05,1.79,0.26,43.08
7,0.01,1.79,0.29,39.03
7,-0.04,1.49,0.17,39.03
7,-0.10,0.38,-0.05,40.04
7,-0.10,0.38,-0.03,41.58
7,-0.07,0.33,-0.03,41.58
7,0.02,1.09,0.19,40.64
7,0.02,1.11,0.31,39.76
7,0.06,1.80,0.31,43.39
7,-0.02,1.40,0.18,43.39
7,-0.02,0.32,-0.06,46.31
7,-0.10,0.32,-0.04,41.61
7,-0.11,0.37,-0.04,41.61
7,-0.09,1.13,0.14,41.87
7,-0.03,1.13,0.24,43.41
7,0.03,1.81,0.24,43.41
7,-0.03,1.32,0.11,41.41
7,-0.03,1.32,-0.06,41.38
7,-0.13,0.26,-0.06,40.95
7,-0.06,0.40,0.01,43.30
7,-0.06,1.20,0.21,43.29
7,0.03,1.20,0.21,42.69
7,0.08,1.85,0.30,42.69
7,0.10,1.26,0.13,42.73
7,-0.03,1.26,0.14,44.13
7,-0.13,0.22,-0.05,44.13
7,-0.07,0.46,-0.03,45.82
7,-0.07,0.46,0.17,40.87
7,-0.02,1.28,0.17,41.21
7,0.01,1.89,0.25,41.21
7,0.01,1.18,0.10,40.03
7,-0.06,1.18,0.10,42.73
7,-0.11,0.17,-0.08,42.73
7,-0.10,0.50,0.02,41.76
7,-0.03,0.50,0.05,42.04
7,0.04,1.29,0.24,42.04
7,0.05,1.87,0.31,43.86
7,0.05,1.87,0.11,42.20
7,-0.05,1.09,0.11,41.61
7,-0.12,0.15,-0.07,41.61
7,-0.12,0.17,0.00,44.15
7,-0.09,0.55,0.00,42.50
7,0.00,1.38,0.18,42.50
7,0.00,1.88,0.24,45.39
7,0.02,1.88,0.24,41.56
7,-0.06,1.03,0.05,41.56
7,-0.13,0.15,-0.07,40.69
7,-0.13,0.15,0.05,40.32
7,-0.03,0.58,0.05,40.32
7,0.06,1.42,0.27,41.67
7,0.06,1.38,0.29,38.84
7,0.07,1.88,0.29,38.46
7,-0.07,0.92,0.07,44.73
7,-0.07,0.10,-0.09,43.47
7,-0.12,0.10,-0.09,45.18
7,-0.06,0.64,0.01,45.18
7,-0.06,1.47,0.21,43.75
7,0.01,1.47,0.24,41.32
7,0.00,1.88,0.24,41.32
7,-0.09,0.85,0.04,40.81
7,-0.09,0.82,-0.08,40.19
7,-0.09,0.13,-0.08,40.60
7,-0.03,0.70,0.08,42.16
7,-0.03,1.53,0.29,43.68
7,0.05,1.53,0.29,41.49
7,0.04,1.85,0.28,41.49
7,0.05,0.76,0.03,40.51
7,-0.07,0.76,0.05,40.26
7,-0.15,0.15,-0.08,40.26
7,-0.07,0.75,0.06,43.87
7,-0.07,0.75,0.22,41.18
7,0.02,1.56,0.22,41.12
7,0.01,1.79,0.21,37.98
7,0.01,0.67,-0.00,43.35
7,-0.10,0.67,-0.00,41.66
7,-0.11,0.14,-0.06,41.66
7,-0.12,0.79,0.12,43.60
7,0.00,0.79,0.11,43.22
7,0.06,1.64,0.30,43.22
7,0.02,1.74,0.24,38.86
7,0.02,1.74,0.01,40.42
7,-0.11,0.60,0.01,40.27
7,-0.12,0.18,-0.08,39.49
7,-0.12,0.14,0.07,40.37
7,-0.04,0.89,0.07,41.45
7,0.00,1.69,0.24,41.45
7,0.00,1.69,0.20,41.83
7,-0.03,1.69,0.22,40.53
7,-0.08,0.53,-0.03,40.53
7,-0.09,0.21,-0.07,43.84
7,-0.09,0.21,0.15,40.96
7,0.01,0.92,0.15,40.96
7,0.05,1.71,0.32,43.23
7,0.05,1.72,0.22,39.31
7,-0.02,1.59,0.22,39.47
7,-0.10,0.44,-0.02,43.38
7,-0.10,0.25,-0.05,41.77
7,-0.13,0.25,-0.05,40.67
7,-0.03,0.97,0.11,40.67
7,-0.04,1.77,0.25,41.77
7,0.02,1.77,0.22,44.79
7,-0.02,1.53,0.16,44.79
7,-0.12,0.42,-0.04,43.00
7,-0.12,0.42,-0.03,40.96
7,-0.09,0.29,-0.03,40.77
7,0.02,1.05,0.18,43.90
7,0.02,1.81,0.31,42.16
7,0.08,1.81,0.31,42.72
7,-0.01,1.44,0.18,42.72
7,-0.00,0.33,-0.03,41.51
7,-0.13,0.33,-0.05,38.76
7,-0.08,0.33,-0.05,38.76
7,-0.03,1.11,0.14,42.59
7,-0.03,1.11,0.26,41.52
7,0.01,1.83,0.26,41.96
7,-0.05,1.37,0.14,45.10
7,-0.05,1.34,-0.06,41.10
7,-0.10,0.28,-0.06,41.94
7,-0.06,0.39,-0.00,41.94
7,-0.06,1.18,0.21,45.34
7,0.03,1.18,0.19,42.29
7,0.06,1.85,0.32,42.29
7,-0.02,1.31,0.15,44.01
7,-0.02,1.31,-0.06,40.71
7,-0.13,0.24,-0.06,40.71
7,-0.12,0.43,-0.03,40.50
7,-0.12,0.42,0.16,42.59
7,-0.03,1.23,0.16,42.67
7,0.03,1.86,0.24,43.46
7,0.03,1.21,0.10,42.84
7,-0.04,1.21,0.12,43.64
7,-0.14,0.19,-0.06,43.64
7,-0.17,0.45,0.02,43.88
7,-0.04,0.45,0.23,43.15
7,0.06,1.28,0.23,43.15
7,0.08,1.88,0.30,43.15
7,0.08,1.88,0.11,48.00
7,-0.06,1.13,0.11,48.15
7,-0.13,0.16,-0.06,40.31
7,-0.13,0.53,-0.02,41.68
7,-0.06,0.53,-0.02,38.75
7,-0.01,1.36,0.18,38.75
7,-0.06,1.90,0.25,41.61
7,0.01,1.90,0.26,41.36
7,-0.05,1.07,0.07,41.36
7,-0.10,0.14,-0.08,41.12
7,-0.10,0.14,0.04,39.87
7,-0.03,0.56,0.04,39.80
7,0.05,1.40,0.26,42.15
7,0.05,1.86,0.31,44.65
7,0.04,1.86,0.31,42.42
7,-0.06,0.96,0.08,42.42
7,-0.00,0.11,-0.08,44.17
7,-0.13,0.11,-0.11,40.40
7,-0.08,0.60,0.02,40.40
7,0.02,1.45,0.20,41.64
7,0.02,1.45,0.24,44.18
7,0.03,1.88,0.24,44.31
7,-0.08,0.89,0.04,41.18
7,-0.08,0.93,-0.07,43.60
7,-0.11,0.12,-0.07,42.40
7,-0.02,0.68,0.08,42.40
7,-0.02,1.50,0.28,42.60
7,0.06,1.50,0.27,40.16
7,0.06,1.87,0.27,40.16
7,0.04,0.79,0.05,40.36
7,-0.09,0.79,-0.09,39.42
7,-0.11,0.12,-0.09,39.42
7,-0.06,0.75,0.04,45.32
7,-0.06,0.73,0.23,42.10
7,-0.00,1.55,0.23,42.01
7,-0.01,1.82,0.22,42.01
7,-0.01,0.70,0.01,41.16
7,-0.09,0.70,0.01,41.50
7,-0.08,0.13,-0.07,41.50
7,-0.07,0.78,0.12,43.48
7,-0.01,0.78,0.31,42.64
7,0.05,1.62,0.31,42.64
7,0.02,1.77,0.26,42.96
7,0.02,1.76,0.01,41.42
7,-0.09,0.64,0.01,40.94
7,-0.15,0.18,-0.07,41.73
7,-0.15,0.84,0.07,40.51
7,-0.05,0.84,0.07,41.48
7,0.02,1.66,0.23,41.48
7,0.01,1.71,0.19,40.58
7,0.01,1.71,0.23,40.93
7,-0.09,0.56,-0.02,40.93
7,-0.10,0.18,-0.06,38.02
7,-0.10,0.18,0.13,42.44
7,0.02,0.89,0.13,43.01
7,0.07,1.70,0.30,37.53
7,0.07,1.70,0.22,40.00
7,-0.00,1.63,0.22,45.58
7,-0.12,0.48,-0.00,45.58
7,-0.09,0.23,-0.07,43.58
7,-0.09,0.23,-0.09,43.33
7,-0.04,0.97,0.10,43.33
7,-0.00,1.76,0.26,38.90
7,-0.00,1.76,0.17,40.92
7,-0.03,1.58,0.17,40.92
7,-0.09,0.43,-0.04,38.97
7,-0.09,0.42,-0.05,42.57
7,-0.09,0.30,-0.05,42.60
7,0.01,1.02,0.17,43.38
7,0.01,1.78,0.32,41.11
7,0.06,1.78,0.32,40.47
8,-0.04,0.30,-0.04,38.63
8,-0.14,0.30,-0.04,39.24
8,-0.06,0.37,-0.01,39.24
8,-0.09,1.16,0.20,42.66
8,0.04,1.16,0.24,41.22
8,0.06,1.85,0.31,41.22
8,-0.03,1.33,0.16,41.33
8,-0.03,1.33,-0.06,37.90
8,-0.13,0.26,-0.06,38.21
8,-0.09,0.43,-0.04,38.21
8,-0.09,0.40,0.16,41.10
8,-0.05,1.21,0.16,42.44
8,0.01,1.86,0.26,42.44
8,0.02,1.24,0.11,42.37
8,-0.04,1.24,0.11,41.30
8,-0.11,0.20,-0.08,41.30
8,-0.05,0.44,0.02,41.72
8,-0.05,0.44,0.23,39.13
8,0.04,1.25,0.23,39.13
8,0.05,1.87,0.31,43.04
8,0.05,1.84,0.12,41.53
8,-0.03,1.15,0.12,41.78
8,-0.14,0.18,-0.07,39.43
8,-0.14,0.50,-0.00,39.41
8,-0.09,0.50,-0.01,39.64
8,0.00,1.32,0.17,39.64
8,0.04,1.90,0.24,42.94
8,0.04,1.90,0.07,41.23
8,-0.05,1.10,0.07,41.23
8,-0.13,0.15,-0.07,39.02
8,-0.13,0.15,0.03,41.18
8,-0.03,0.53,0.03,41.32
8,0.06,1.37,0.25,40.54
8,0.06,1.88,0.30,40.47
8,0.06,1.88,0.30,42.32
8,-0.07,1.01,0.09,42.32
8,-0.11,0.12,-0.08,43.39
8,-0.11,0.12,-0.12,43.71
8,-0.08,0.58,0.01,43.71
8,-0.02,1.43,0.20,41.56
8,-0.02,1.38,0.25,41.11
8,0.02,1.88,0.25,41.09
8,-0.07,0.95,0.05,41.88
8,-0.07,0.14,-0.08,42.61
8,-0.10,0.14,-0.08,41.26
8,-0.04,0.65,0.07,41.26
8,-0.02,1.47,0.28,43.52
8,0.04,1.47,0.29,46.62
8,0.04,1.86,0.29,46.62
8,-0.07,0.84,0.05,39.88
8,-0.07,0.84,-0.08,43.37
8,-0.13,0.12,-0.08,43.40
8,-0.07,0.70,0.04,44.19
8,-0.07,0.70,0.21,44.86
8,0.02,1.51,0.21,41.31
8,0.00,1.83,0.21,41.31
8,0.00,0.76,0.02,42.54
8,-0.10,0.76,0.05,42.74
8,-0.10,0.12,-0.07,42.74
8,-0.07,0.77,0.10,41.12
8,-0.01,0.77,0.29,42.55
8,0.07,1.60,0.29,42.55
8,0.03,1.80,0.26,39.64
8,0.03,1.80,0.03,41.32
8,-0.10,0.67,0.03,41.08
8,-0.11,0.15,-0.09,40.30
8,-0.11,0.84,0.06,44.12
8,-0.07,0.84,0.06,43.47
8,0.00,1.62,0.24,43.47
8,0.06,1.75,0.21,41.74
8,-0.00,1.75,-0.02,44.14
8,-0.08,0.59,-0.02,44.14
8,-0.10,0.17,-0.07,41.05
8,-0.10,0.17,0.14,39.77
8,0.00,0.86,0.14,39.44
8,0.05,1.66,0.31,44.93
8,0.05,1.68,0.24,45.08
8,-0.00,1.68,0.24,40.36
8,-0.10,0.52,-0.00,40.36
8,-0.08,0.21,-0.06,40.90
8,-0.14,0.21,-0.04,41.68
8,-0.02,0.93,0.09,41.68
8,0.02,1.72,0.25,40.18
8,0.02,1.72,0.17,44.27
8,-0.01,1.63,0.17,44.47
8,-0.11,0.46,-0.03,41.34
8,-0.11,0.44,-0.05,39.95
8,-0.09,0.25,-0.05,42.95
8,0.03,1.00,0.15,42.95
8,0.01,1.76,0.31,39.86
8,0.07,1.76,0.33,39.76
8,-0.01,1.52,0.20,39.76
8,-0.12,0.37,-0.02,41.05
8,-0.12,0.37,-0.07,39.25
8,-0.10,0.29,-0.07,39.25
8,-0.05,1.03,0.13,43.31
8,-0.05,1.00,0.26,39.88
8,0.01,1.82,0.26,43.45
8,-0.03,1.46,0.15,43.45
8,-0.03,0.34,-0.06,42.88
8,-0.10,0.34,-0.08,45.44
8,-0.08,0.35,-0.02,45.44
8,-0.10,1.12,0.20,42.23
8,0.02,1.12,0.32,38.34
8,0.05,1.83,0.32,38.34
8,-0.02,1.38,0.17,42.45
8,-0.02,1.41,-0.05,42.00
8,-0.13,0.28,-0.05,41.95
8,-0.11,0.39,-0.04,39.60
8,-0.11,1.15,0.14,42.23
8,-0.01,1.15,0.14,42.89
8,0.03,1.85,0.25,42.89
8,0.01,1.30,0.11,42.61
8,-0.05,1.30,0.07,44.59
8,-0.13,0.22,-0.06,44.59
8,-0.05,0.42,0.00,40.46
8,-0.05,0.41,0.21,39.10
8,0.05,1.23,0.21,39.73
8,0.07,1.88,0.31,42.08
8,0.07,1.21,0.14,46.06
8,-0.04,1.21,0.14,42.79
8,-0.11,0.20,-0.07,42.79
8,-0.09,0.48,-0.02,41.00
8,-0.09,0.48,-0.01,42.40
8,-0.02,1.30,0.18,42.40
8,0.02,1.91,0.26,39.26
8,0.02,1.91,0.08,39.32
8,-0.05,1.12,0.08,39.62
8,-0.12,0.16,-0.08,41.19
8,-0.12,0.18,0.03,40.49
8,-0.04,0.49,0.03,44.22
8,0.04,1.32,0.25,44.22
8,0.04,1.89,0.30,42.85
8,0.06,1.89,0.28,42.40
8,-0.04,1.04,0.09,42.40
8,-0.14,0.13,-0.07,42.26
8,-0.14,0.13,0.01,40.49
8,-0.07,0.54,0.01,40.49
8,0.02,1.41,0.18,43.82
8,0.02,1.39,0.25,40.15
8,0.03,1.89,0.25,40.17
8,-0.09,1.01,0.06,41.74
8,-0.09,0.13,-0.09,43.62
8,-0.11,0.13,-0.09,41.44
8,-0.02,0.61,0.05,41.44
8,-0.06,1.45,0.26,42.00
8,0.07,1.45,0.29,43.57
8,0.06,1.87,0.29,43.57
8,-0.09,0.89,0.07,38.94
8,-0.09,0.92,-0.09,40.95
8,-0.11,0.10,-0.09,41.35
8,-0.09,0.67,0.03,38.22
8,-0.09,1.49,0.22,42.77
8,0.00,1.49,0.22,42.24
8,0.00,1.85,0.23,42.24
8,0.05,0.81,0.02,39.55
8,-0.08,0.81,0.05,42.99
8,-0.10,0.13,-0.07,42.99
8,-0.03,0.73,0.10,40.12
8,-0.03,0.73,0.30,44.93
8,0.05,1.56,0.30,44.76
8,0.04,1.82,0.27,44.76
8,0.04,1.85,0.03,41.40
8,-0.07,0.73,0.03,40.26
8,-0.14,0.14,-0.08,40.26
8,-0.17,0.79,0.05,44.16
8,-0.04,0.79,0.03,45.57
8,0.02,1.60,0.22,45.57
8,0.01,1.76,0.21,39.59
8,0.01,1.76,-0.00,43.75
8,-0.11,0.64,-0.00,43.75
8,-0.10,0.14,-0.07,41.64
8,-0.10,0.15,0.12,42.54
8,0.01,0.84,0.12,39.52
8,0.07,1.65,0.30,39.52
8,0.07,1.71,0.24,37.95
8,0.01,1.71,0.20,46.61
8,-0.10,0.57,0.01,46.61
8,-0.12,0.20,-0.08,41.67
8,-0.12,0.20,0.09,40.84
8,-0.05,0.93,0.09,40.84
8,0.00,1.70,0.25,42.58
8,0.00,1.73,0.18,45.04
8,-0.02,1.66,0.18,45.05
8,-0.09,0.49,-0.04,41.91
8,-0.09,0.23,-0.05,43.78
8,-0.10,0.23,-0.05,43.19
8,0.01,0.96,0.16,43.19
8,0.06,1.72,0.32,40.71
8,0.06,1.72,0.33,45.12
8,-0.00,1.57,0.21,45.12
8,-0.12,0.41,-0.01,42.27
8,-0.12,0.38,-0.06,39.66
8,-0.12,0.25,-0.06,39.31
8,-0.03,1.01,0.11,40.88
8,-0.03,1.79,0.25,40.66
8,0.03,1.79,0.25,43.78
8,-0.03,1.51,0.16,43.78
8,-0.06,0.36,-0.05,39.70
8,-0.12,0.36,-0.04,42.77
8,-0.07,0.33,-0.04,42.77
8,0.03,1.08,0.18,46.15
8,0.03,1.08,0.31,42.04
8,0.07,1.82,0.31,41.92
8,-0.02,1.42,0.18,44.27
8,-0.02,1.42,-0.06,42.54
8,-0.11,0.29,-0.06,42.99
8,-0.10,0.36,-0.05,42.99
8,-0.10,1.12,0.14,42.84
8,-0.04,1.12,0.13,41.28
8,0.01,1.84,0.26,41.28
8,-0.03,1.34,0.12,42.70
8,-0.03,1.34,-0.07,41.26
8,-0.12,0.25,-0.07,41.26
8,-0.06,0.41,0.00,40.90
8,-0.06,0.39,0.21,41.66
8,0.03,1.20,0.21,41.54
8,0.06,1.87,0.32,41.54
8,0.06,1.26,0.13,45.34
8,-0.02,1.26,0.13,40.28
8,-0.14,0.22,-0.06,40.28
8,-0.15,0.45,-0.03,43.74
8,-0.09,0.45,0.16,42.98
8,-0.01,1.26,0.16,42.98
8,0.03,1.89,0.25,44.02
8,0.03,1.92,0.10,43.12
8,-0.07,1.17,0.10,43.08
8,-0.12,0.16,-0.07,40.73
8,-0.12,0.47,0.02,40.40
8,-0.04,0.47,0.02,41.59
8,0.06,1.29,0.23,41.59
8,0.05,1.89,0.31,43.04
9,-0.05,1.03,0.05,39.92
9,-0.06,0.16,-0.08,44.97
9,-0.12,0.16,-0.07,38.86
9,-0.03,0.56,0.06,38.86
9,0.06,1.42,0.27,41.74
9,0.06,1.42,0.29,43.85
9,0.07,1.87,0.29,43.86
9,-0.06,0.92,0.06,39.16
9,-0.06,0.10,-0.07,41.76
9,-0.14,0.10,-0.07,43.61
9,-0.06,0.61,0.02,43.61
9,-0.04,1.47,0.20,43.66
9,0.03,1.47,0.24,40.06
9,0.02,1.87,0.24,40.06
9,-0.10,0.87,0.05,41.49
9,-0.10,0.87,-0.08,44.41
9,-0.10,0.12,-0.08,44.20
9,-0.01,0.71,0.07,41.85
9,-0.01,0.73,0.28,42.94
9,0.06,1.54,0.28,43.08
9,0.03,1.85,0.28,43.08
9,0.03,0.77,0.05,43.78
9,-0.09,0.77,0.03,43.29
9,-0.12,0.13,-0.09,43.29
9,-0.08,0.77,0.06,40.77
9,-0.08,0.77,0.23,44.59
9,0.00,1.56,0.23,44.59
9,0.00,1.79,0.22,43.30
9,0.00,1.81,-0.00,41.13
9,-0.08,0.68,-0.00,41.41
9,-0.11,0.13,-0.07,41.41
9,-0.11,0.80,0.12,42.07
9,-0.01,0.80,0.12,40.09
9,0.06,1.63,0.31,40.09
9,0.03,1.74,0.25,40.63
9,0.03,1.74,0.02,40.25
9,-0.09,0.61,0.02,40.25
9,-0.14,0.17,-0.07,42.10
9,-0.14,0.13,0.07,41.81
9,-0.04,0.88,0.07,42.03
9,0.01,1.68,0.24,41.25
9,0.01,1.71,0.20,43.37
9,-0.01,1.71,0.20,40.23
9,-0.10,0.54,-0.02,40.23
9,-0.09,0.18,-0.07,38.62
9,-0.09,0.18,-0.11,38.93
9,0.02,0.91,0.14,38.93
9,0.06,1.69,0.31,39.35
9,0.06,1.69,0.23,39.60
9,-0.02,1.61,0.23,39.32
9,-0.10,0.45,-0.01,40.89
9,-0.10,0.50,-0.06,43.40
9,-0.12,0.25,-0.06,42.86
9,-0.05,0.99,0.11,42.86
9,-0.05,1.75,0.25,41.99
9,0.02,1.75,0.29,42.28
9,-0.02,1.55,0.16,42.28
9,-0.10,0.40,-0.04,43.22
9,-0.10,0.40,-0.03,42.07
9,-0.10,0.30,-0.03,42.07
9,0.02,1.05,0.18,42.81
9,0.02,1.04,0.31,40.76
9,0.07,1.79,0.31,41.33
9,-0.01,1.47,0.19,42.11
9,-0.01,0.32,-0.04,39.09
9,-0.14,0.32,-0.06,41.88
9,-0.08,0.31,-0.06,41.88
9,-0.07,1.09,0.13,45.40
9,-0.01,1.09,0.25,41.67
9,0.03,1.83,0.25,41.67
9,-0.04,1.41,0.14,44.34
9,-0.04,1.40,-0.05,41.03
9,-0.12,0.27,-0.05,40.76
9,-0.05,0.39,-0.01,45.46
9,-0.05,1.17,0.20,41.58
9,0.03,1.17,0.20,40.47
9,0.06,1.86,0.31,40.47
9,0.03,1.33,0.16,38.47
9,-0.03,1.33,0.18,43.66
9,-0.11,0.23,-0.07,43.66
9,-0.11,0.44,-0.03,40.36
9,-0.11,0.44,0.16,43.76
9,-0.03,1.21,0.16,43.14
9,0.02,1.87,0.26,45.49
9,0.02,1.22,0.10,45.54
9,-0.04,1.22,0.10,41.11
9,-0.13,0.18,-0.06,41.11
9,-0.17,0.45,0.02,42.05
9,-0.05,0.45,0.04,41.04
9,0.05,1.26,0.23,41.04
9,0.06,1.90,0.30,43.34
9,0.06,1.90,0.12,42.25
9,-0.04,1.13,0.12,42.80
9,-0.14,0.16,-0.06,43.59
9,-0.14,0.15,-0.01,42.43
9,-0.08,0.52,-0.01,43.54
9,0.00,1.35,0.18,43.54
9,0.00,1.92,0.25,42.51
9,0.02,1.92,0.20,42.70
9,-0.07,1.07,0.08,42.70
9,-0.11,0.13,-0.09,41.38
9,-0.11,0.13,0.03,40.83
9,-0.02,0.54,0.03,40.83
9,0.06,1.38,0.25,38.02
9,0.06,1.39,0.30,38.88
9,0.05,1.89,0.30,38.35
9,-0.07,0.97,0.08,40.70
9,-0.07,0.10,-0.09,40.87
9,-0.12,0.10,-0.09,44.22
9,-0.09,0.58,0.02,44.22
9,-0.12,1.45,0.21,43.58
9,0.01,1.45,0.25,42.08
9,0.03,1.89,0.25,42.08
9,-0.07,0.92,0.04,42.06
9,-0.07,0.89,-0.08,43.70
9,-0.12,0.14,-0.08,43.20
9,-0.03,0.65,0.07,43.20
9,-0.03,1.50,0.28,44.90
9,0.06,1.50,0.28,41.20
9,0.06,1.86,0.28,41.20
9,0.04,0.81,0.05,43.41
9,-0.08,0.81,0.05,40.53
9,-0.13,0.11,-0.08,40.53
9,-0.05,0.71,0.03,39.64
9,-0.05,0.71,0.22,40.18
9,0.02,1.54,0.22,40.38
9,-0.01,1.83,0.22,41.17
9,-0.01,1.86,0.02,42.57
9,-0.11,0.73,0.02,42.29
9,-0.09,0.12,-0.08,42.29
9,-0.07,0.78,0.10,41.64
9,-0.01,0.78,0.12,41.42
9,0.05,1.62,0.30,41.42
9,0.01,1.78,0.27,41.27
9,0.01,1.78,0.02,43.73
9,-0.09,0.66,0.02,43.73
9,-0.13,0.16,-0.08,45.13
9,-0.13,0.16,0.07,42.45
9,-0.07,0.85,0.07,41.44
9,0.02,1.65,0.23,41.44
9,0.02,1.72,0.19,40.36
9,0.01,1.72,0.23,40.95
9,-0.09,0.58,-0.02,40.95
9,-0.11,0.14,-0.05,42.89
9,-0.11,0.14,0.14,44.17
9,0.01,0.87,0.14,44.17
9,0.06,1.68,0.31,45.95
9,0.06,1.65,0.22,45.95
9,0.01,1.65,0.22,45.57
9,-0.12,0.50,0.00,40.08
9,-0.12,0.21,-0.07,43.27
9,-0.12,0.21,-0.07,43.95
9,-0.02,0.98,0.09,43.95
9,-0.05,1.74,0.25,46.59
9,0.01,1.74,0.24,43.98
9,-0.03,1.62,0.18,43.98
9,-0.11,0.44,-0.03,43.75
9,-0.11,0.45,-0.06,43.53
9,-0.08,0.26,-0.06,43.43
9,0.03,1.01,0.16,41.86
9,0.03,1.76,0.32,44.62
9,0.06,1.76,0.32,43.41
9,-0.02,1.51,0.20,43.41
9,-0.05,0.36,-0.04,41.34
9,-0.11,0.36,-0.05,37.89
9,-0.13,0.29,-0.05,37.89
9,-0.03,1.05,0.13,39.95
9,-0.03,1.05,0.26,41.09
9,0.03,1.81,0.26,41.32
9,-0.02,1.44,0.14,42.89
9,-0.02,1.44,-0.06,44.21
9,-0.12,0.31,-0.06,42.70
9,-0.08,0.35,-0.01,42.70
9,-0.08,1.13,0.19,41.60
9,0.03,1.13,0.25,41.01
9,0.07,1.83,0.31,41.01
9,0.11,1.38,0.16,42.33
9,-0.02,1.38,-0.05,42.12
9,-0.14,0.25,-0.05,42.12
9,-0.08,0.38,-0.05,42.44
9,-0.08,0.43,0.15,42.68
9,-0.03,1.18,0.15,42.26
9,0.01,1.85,0.25,39.91
9,0.01,1.30,0.11,44.22
9,-0.06,1.30,0.11,37.65
9,-0.12,0.19,-0.07,37.65
9,-0.11,0.44,0.01,45.27
9,-0.04,0.44,0.23,39.13
9,0.04,1.22,0.23,39.13
9,0.06,1.88,0.31,44.16
9,0.06,1.89,0.13,44.34
9,-0.04,1.20,0.13,44.51
9,-0.11,0.19,-0.08,42.94
9,-0.11,0.50,-0.01,43.20
9,-0.11,0.50,-0.01,40.86
9,-0.01,1.29,0.17,40.86
9,-0.03,1.91,0.24,41.38
9,0.04,1.91,0.20,40.34
9,-0.04,1.11,0.07,40.34
9,-0.14,0.15,-0.07,43.79
9,-0.14,0.15,0.04,40.93
9,-0.04,0.51,0.04,41.42
9,0.05,1.34,0.24,42.99
9,0.05,1.34,0.30,42.14
9,0.06,1.90,0.30,42.18
9,-0.06,1.02,0.09,42.18
9,-0.01,0.13,-0.07,40.91
9,-0.13,0.13,-0.12,41.44
9,-0.07,0.57,0.00,41.44
9,0.00,1.43,0.19,42.99
9,0.00,1.43,0.25,38.67
9,0.01,1.90,0.25,38.67
9,-0.09,0.97,0.05,45.00
9,-0.09,0.95,-0.09,41.38
9,-0.10,0.14,-0.09,41.83
9,-0.02,0.62,0.06,41.83
9,-0.02,1.47,0.27,43.50
9,0.05,1.47,0.29,43.50
9,0.05,1.87,0.29,43.50
9,0.05,0.85,0.06,42.96
9,-0.07,0.85,-0.09,38.52
9,-0.12,0.10,-0.09,38.52
9,-0.08,0.65,0.04,39.80
9,-0.08,0.63,0.21,40.48
9,0.03,1.50,0.21,39.95
9,0.01,1.86,0.23,41.52
9,0.01,0.80,0.02,39.06
9,-0.08,0.80,0.02,45.73
9,-0.11,0.13,-0.07,45.73
9,-0.08,0.74,0.10,41.83
9,-0.02,0.74,0.10,40.95
9,0.06,1.58,0.29,40.95
10,-0.01,1.76,-0.01,41.58
10,-0.02,1.42,0.19,43.12
10,-0.13,0.28,-0.05,41.86
10,-0.13,0.28,-0.04,44.49
10,-0.11,0.35,-0.04,44.49
10,-0.02,1.12,0.14,39.17
10,-0.02,1.09,0.25,44.41
10,0.03,1.84,0.25,44.36
10,-0.02,1.35,0.11,42.79
10,-0.02,0.23,-0.06,43.70
10,-0.13,0.23,-0.06,46.43
10,-0.06,0.40,0.00,46.43
10,-0.09,1.20,0.22,45.54
10,0.04,1.20,0.25,43.10
10,0.07,1.87,0.31,43.10
10,-0.03,1.28,0.14,39.88
10,-0.03,1.27,-0.06,42.39
10,-0.13,0.20,-0.06,42.40
10,-0.08,0.45,-0.04,43.18
10,-0.08,1.25,0.16,48.31
10,-0.02,1.25,0.16,41.91
10,0.02,1.90,0.26,41.91
10,0.01,1.20,0.10,43.11
10,-0.06,1.20,0.11,42.08
10,-0.12,0.16,-0.07,42.08
10,-0.04,0.47,0.02,42.44
10,-0.04,0.47,0.24,41.65
10,0.04,1.27,0.24,41.65
10,0.05,1.91,0.31,46.61
10,0.05,1.92,0.11,43.87
10,-0.03,1.10,0.11,43.93
10,-0.12,0.15,-0.07,40.79
10,-0.12,0.53,0.00,41.80
10,-0.10,0.53,0.06,42.35
10,0.00,1.36,0.18,42.35
10,0.03,1.92,0.25,44.70
10,0.03,1.92,0.06,43.40
10,-0.06,1.05,0.06,43.40
10,-0.13,0.14,-0.08,43.54
10,-0.13,0.17,0.04,41.88
10,-0.03,0.54,0.04,41.51
10,0.06,1.39,0.25,42.29
10,0.06,1.88,0.29,43.09
10,0.06,1.88,0.29,42.37
10,-0.07,0.93,0.08,42.37
10,-0.11,0.11,-0.07,44.63
10,-0.11,0.11,-0.10,40.76
10,-0.06,0.63,0.03,40.76
10,0.01,1.48,0.21,43.71
10,0.01,1.48,0.25,42.90
10,0.02,1.90,0.25,42.51
10,-0.08,0.85,0.04,41.72
10,-0.08,0.82,-0.09,41.81
10,-0.10,0.13,-0.09,42.99
10,-0.03,0.69,0.08,42.99
10,-0.03,1.54,0.29,43.27
10,0.05,1.54,0.28,42.60
10,0.04,1.87,0.28,42.60
10,0.05,0.77,0.04,40.42
10,-0.08,0.77,-0.08,39.53
10,-0.14,0.11,-0.08,39.53
10,-0.06,0.72,0.05,43.37
10,-0.06,0.74,0.22,39.93
10,0.03,1.56,0.22,40.34
10,0.00,1.81,0.22,44.26
10,0.00,0.70,0.01,41.50
10,-0.11,0.70,0.01,42.87
10,-0.11,0.12,-0.07,42.87
10,-0.07,0.78,0.11,42.00
10,-0.00,0.78,0.11,41.73
10,0.06,1.64,0.29,41.73
10,0.02,1.76,0.25,42.73
10,0.02,1.76,0.03,43.11
10,-0.11,0.63,0.03,43.35
10,-0.12,0.16,-0.08,43.35
10,-0.12,0.87,0.07,46.60
10,-0.04,0.87,0.07,42.56
10,0.01,1.68,0.24,42.56
10,0.05,1.71,0.21,42.42
10,-0.01,1.71,0.23,45.71
10,-0.08,0.54,-0.02,45.71
10,-0.09,0.17,-0.07,41.92
10,-0.09,0.17,0.15,44.43
10,0.01,0.90,0.15,44.43
10,0.05,1.71,0.32,42.64
10,0.05,1.69,0.22,42.43
10,-0.01,1.63,0.22,42.38
10,-0.10,0.47,-0.02,40.81
10,-0.10,0.21,-0.06,40.79
10,-0.14,0.21,-0.06,44.35
10,-0.03,0.97,0.10,44.35
10,-0.03,1.77,0.24,44.58
10,0.03,1.77,0.22,42.31
10,-0.01,1.59,0.16,42.31
10,-0.12,0.43,-0.03,42.80
10,-0.12,0.38,-0.04,41.21
10,-0.10,0.25,-0.04,40.81
10,0.02,1.03,0.17,43.16
10,0.02,1.78,0.31,48.83
10,0.08,1.78,0.31,46.00
10,-0.01,1.48,0.19,46.00
10,-0.01,0.33,-0.04,42.06
10,-0.13,0.33,-0.06,43.34
10,-0.09,0.30,-0.06,43.34
10,-0.04,1.08,0.13,42.73
10,-0.04,1.08,0.26,43.47
10,0.03,1.82,0.26,43.47
10,-0.04,1.42,0.15,39.79
10,-0.04,1.41,-0.06,40.82
10,-0.10,0.29,-0.06,40.92
10,-0.07,0.38,-0.01,40.92
10,-0.07,1.17,0.21,41.32
10,0.02,1.17,0.20,41.69
10,0.05,1.85,0.32,41.69
10,0.04,1.36,0.16,42.07
10,-0.02,1.36,-0.06,44.11
10,-0.13,0.23,-0.06,44.11
10,-0.11,0.40,-0.03,38.62
10,-0.11,0.39,0.15,43.30
10,-0.02,1.20,0.15,43.44
10,0.02,1.87,0.25,39.53
10,0.02,1.26,0.10,41.39
10,-0.04,1.26,0.10,38.45
10,-0.14,0.16,-0.06,38.45
10,-0.17,0.42,0.01,42.45
10,-0.04,0.42,0.04,43.60
10,0.06,1.25,0.22,43.60
10,0.07,1.91,0.31,43.99
10,0.07,1.91,0.13,38.97
10,-0.04,1.18,0.13,38.39
10,-0.12,0.15,-0.07,41.52
10,-0.12,0.13,-0.02,41.95
10,-0.07,0.50,-0.02,41.43
10,-0.02,1.32,0.18,41.43
10,-0.02,1.94,0.26,40.41
10,0.02,1.94,0.27,40.56
10,-0.05,1.10,0.08,40.56
10,-0.06,0.13,-0.09,42.79
10,-0.12,0.13,0.03,41.89
10,-0.04,0.52,0.03,41.89
10,0.05,1.34,0.25,39.67
10,0.05,1.34,0.31,43.01
10,0.05,1.91,0.31,42.47
10,-0.05,1.01,0.09,41.69
10,-0.05,0.11,-0.08,43.44
10,-0.13,0.11,-0.08,41.51
10,-0.09,0.56,0.01,41.51
10,-0.10,1.43,0.19,41.03
10,0.02,1.43,0.19,43.02
10,0.03,1.91,0.25,43.02
10,-0.09,0.95,0.05,40.86
10,-0.09,0.95,-0.08,40.71
10,-0.12,0.11,-0.08,41.20
10,-0.02,0.63,0.05,41.20
10,-0.02,1.48,0.27,43.01
10,0.06,1.48,0.27,43.29
10,0.07,1.90,0.28,43.29
10,0.09,0.84,0.07,40.61
10,-0.09,0.84,0.09,39.68
10,-0.12,0.09,-0.09,39.68
10,-0.07,0.68,0.03,40.55
10,-0.07,0.68,0.22,45.88
10,0.01,1.51,0.22,45.88
10,-0.01,1.88,0.23,42.02
10,-0.01,1.88,0.01,42.05
10,-0.08,0.76,0.01,41.83
10,-0.10,0.12,-0.08,41.83
10,-0.10,0.74,0.10,46.29
10,-0.02,0.74,0.10,45.30
10,0.04,1.59,0.30,45.30
10,0.03,1.82,0.27,43.21
10,0.03,1.82,0.02,41.65
10,-0.08,0.69,0.02,41.65
10,-0.16,0.14,-0.08,45.64
10,-0.16,0.16,0.06,41.18
10,-0.05,0.79,0.06,41.15
10,0.03,1.62,0.22,43.50
10,0.03,1.76,0.20,42.99
10,-0.00,1.76,0.20,40.62
10,-0.11,0.62,-0.00,40.62
10,-0.11,0.13,-0.06,37.80
10,-0.11,0.13,-0.12,43.91
10,0.01,0.84,0.13,43.91
10,0.06,1.68,0.31,41.76
10,0.06,1.68,0.24,44.90
10,0.00,1.70,0.24,44.95
10,-0.11,0.55,0.01,42.60
10,-0.11,0.55,-0.08,38.00
10,-0.11,0.18,-0.08,40.23
10,-0.04,0.94,0.09,40.23
10,-0.04,1.73,0.25,43.06
10,-0.00,1.73,0.30,44.17
10,-0.02,1.66,0.18,44.17
10,-0.02,0.49,-0.04,42.60
10,-0.09,0.49,-0.06,42.48
10,-0.10,0.22,-0.06,42.48
10,0.01,0.96,0.16,43.80
10,0.01,0.99,0.32,39.53
11,-0.03,1.51,0.16,43.89
11,-0.03,0.36,-0.04,43.31
11,-0.13,0.36,-0.04,46.40
11,-0.07,0.31,-0.03,46.40
11,-0.09,1.10,0.18,41.87
11,0.04,1.10,0.18,42.57
11,0.08,1.83,0.31,42.57
11,-0.02,1.43,0.18,41.73
11,-0.02,1.43,-0.05,37.77
11,-0.13,0.29,-0.05,37.86
11,-0.09,0.36,-0.05,43.34
11,-0.09,0.33,0.14,44.14
11,-0.04,1.14,0.14,40.42
11,0.01,1.83,0.26,40.42
11,0.02,1.36,0.12,39.31
11,-0.04,1.36,0.12,47.27
11,-0.12,0.23,-0.07,47.27
11,-0.06,0.40,-0.00,42.93
11,-0.06,0.40,0.22,39.80
11,0.03,1.20,0.22,39.80
11,0.06,1.87,0.32,42.24
11,0.06,1.85,0.14,44.53
11,-0.02,1.29,0.14,44.49
11,-0.14,0.20,-0.05,40.58
11,-0.14,0.44,-0.02,39.65
11,-0.09,0.44,-0.02,42.96
11,0.00,1.26,0.16,42.96
11,0.03,1.90,0.25,41.55
11,0.03,1.90,0.28,43.26
11,-0.05,1.20,0.09,43.26
11,-0.14,0.15,-0.07,42.72
11,-0.14,0.15,0.01,46.62
11,-0.03,0.47,0.01,46.61
11,0.06,1.28,0.24,41.91
11,0.06,1.91,0.31,40.77
11,0.06,1.91,0.31,40.45
11,-0.05,1.10,0.11,40.45
11,-0.05,0.13,-0.08,42.74
11,-0.11,0.13,-0.07,43.06
11,-0.09,0.53,-0.01,43.06
11,-0.01,1.37,0.19,42.98
11,-0.01,1.37,0.26,40.47
11,0.01,1.94,0.26,40.47
11,-0.06,1.05,0.07,41.03
11,-0.06,1.01,-0.08,44.93
11,-0.12,0.13,-0.08,43.10
11,-0.04,0.55,0.05,43.10
11,-0.04,1.40,0.27,43.29
11,0.05,1.40,0.31,41.89
11,0.06,1.90,0.31,41.89
11,0.07,0.94,0.07,44.73
11,-0.06,0.94,-0.08,43.53
11,-0.14,0.10,-0.08,43.53
11,-0.07,0.60,0.02,40.42
11,-0.07,0.58,0.20,40.77
11,0.03,1.46,0.20,41.13
11,0.03,1.90,0.25,38.78
11,0.03,0.87,0.05,45.22
11,-0.09,0.87,0.05,42.90
11,-0.11,0.10,-0.09,42.90
11,-0.08,0.68,0.07,45.45
11,-0.02,0.68,0.09,43.92
11,0.07,1.53,0.28,43.92
11,0.05,1.89,0.28,41.66
11,0.05,1.89,0.05,44.20
11,-0.09,0.78,0.05,43.97
11,-0.12,0.11,-0.10,40.84
11,-0.12,0.11,0.05,40.57
11,-0.08,0.73,0.05,42.53
11,0.00,1.56,0.23,42.53
11,0.00,1.83,0.22,39.36
11,0.00,1.83,0.19,39.07
11,-0.07,0.70,0.00,39.07
11,-0.11,0.12,-0.07,40.56
11,-0.11,0.12,0.12,42.65
11,-0.02,0.76,0.12,42.65
11,0.05,1.64,0.31,43.31
11,0.05,1.66,0.26,45.11
11,0.02,1.78,0.26,45.16
11,-0.09,0.64,0.01,39.67
11,-0.09,0.15,-0.07,40.98
11,-0.15,0.15,-0.07,42.93
11,-0.04,0.84,0.06,42.93
11,-0.03,1.67,0.23,40.91
11,0.03,1.67,0.20,43.14
11,-0.01,1.74,0.20,43.14
11,-0.10,0.57,-0.01,39.75
11,-0.10,0.57,-0.08,44.21
11,-0.10,0.14,-0.08,44.35
11,0.01,0.88,0.13,42.78
11,0.01,1.71,0.31,43.24
11,0.07,1.71,0.31,41.95
11,-0.01,1.65,0.23,41.95
11,-0.04,0.49,-0.00,42.17
11,-0.10,0.49,-0.01,46.60
11,-0.11,0.20,-0.07,46.60
11,-0.05,0.96,0.09,43.02
11,-0.05,0.96,0.25,42.49
11,0.01,1.76,0.25,42.49
11,-0.01,1.61,0.17,42.74
11,-0.01,1.57,-0.04,42.40
11,-0.09,0.44,-0.04,42.89
11,-0.10,0.24,-0.05,45.24
11,-0.10,1.01,0.17,42.61
11,0.01,1.01,0.13,43.22
11,0.07,1.77,0.32,43.22
11,0.07,1.51,0.20,40.78
11,0.00,1.51,-0.04,40.67
11,-0.13,0.36,-0.04,40.67
11,-0.11,0.27,-0.05,37.77
11,-0.11,0.30,0.12,41.67
11,-0.02,1.05,0.12,42.06
11,0.03,1.81,0.26,39.71
11,0.03,1.46,0.16,40.98
11,-0.03,1.46,0.16,41.89
11,-0.12,0.31,-0.05,41.89
11,-0.12,0.34,-0.02,42.51
11,-0.06,0.34,-0.06,40.60
11,0.04,1.15,0.19,40.60
11,0.07,1.84,0.31,39.03
11,0.07,1.84,0.17,46.99
11,-0.04,1.39,0.17,47.52
11,-0.12,0.25,-0.06,40.47
11,-0.12,0.27,-0.04,41.18
11,-0.11,0.39,-0.04,41.39
11,-0.04,1.17,0.15,41.39
11,-0.04,1.86,0.26,39.30
11,0.02,1.86,0.30,40.69
11,-0.03,1.30,0.11,40.69
11,-0.00,0.19,-0.07,39.96
11,-0.13,0.19,0.01,38.10
11,-0.07,0.41,0.01,38.10
11,0.04,1.22,0.23,41.43
11,0.04,1.21,0.32,40.64
11,0.06,1.90,0.32,40.27
11,-0.03,1.23,0.12,43.40
11,-0.03,0.17,-0.07,40.42
11,-0.14,0.17,-0.07,41.49
11,-0.08,0.46,-0.02,41.49
11,-0.12,1.30,0.17,41.04
11,0.01,1.30,0.19,41.81
11,0.03,1.93,0.25,41.81
11,-0.06,1.16,0.09,40.50
11,-0.06,1.16,-0.08,43.02
11,-0.13,0.12,-0.08,43.65
11,-0.03,0.49,0.02,42.08
11,-0.03,0.45,0.24,39.23
11,0.05,1.33,0.24,39.35
11,0.06,1.91,0.30,39.35
11,0.06,1.05,0.11,43.97
11,-0.06,1.05,0.09,43.99
11,-0.11,0.10,-0.10,43.99
11,-0.10,0.55,0.01,39.33
11,-0.10,0.55,0.20,41.89
11,-0.01,1.40,0.20,41.89
11,0.02,1.94,0.25,42.33
11,0.02,1.99,0.05,44.08
11,-0.08,0.99,0.05,43.82
11,-0.12,0.12,-0.09,45.38
11,-0.12,0.58,0.06,41.43
11,-0.03,0.58,0.06,43.13
11,0.06,1.45,0.27,43.13
11,0.00,1.91,0.30,40.91
11,0.06,1.91,0.31,41.08
11,-0.07,0.88,0.06,41.08
11,-0.14,0.09,-0.08,44.16
11,-0.14,0.07,0.02,38.89
11,-0.07,0.63,0.02,38.48
11,0.03,1.48,0.21,42.39
11,0.03,1.89,0.23,40.44
11,0.01,1.89,0.23,39.29
11,-0.10,0.81,0.04,39.29
11,-0.10,0.10,-0.09,41.47
11,-0.10,0.10,-0.11,43.03
11,-0.01,0.71,0.08,43.03
11,0.06,1.57,0.29,43.17
11,0.06,1.57,0.27,40.10
11,0.04,1.86,0.27,40.10
11,-0.09,0.74,0.04,40.79
11,-0.09,0.75,-0.09,38.78
11,-0.12,0.12,-0.09,41.24
11,-0.08,0.76,0.06,41.24
11,-0.08,1.61,0.23,42.67
11,0.01,1.61,0.21,41.15
11,0.01,1.81,0.21,41.15
11,0.03,0.65,-0.02,43.25
11,-0.09,0.65,-0.07,40.54
11,-0.11,0.12,-0.07,40.54
11,-0.00,0.79,0.12,37.99
11,-0.00,0.78,0.31,42.76
11,0.06,1.66,0.31,42.93
11,0.02,1.74,0.25,45.28
11,0.02,0.59,0.01,38.77
11,-0.10,0.59,0.01,38.53
11,-0.13,0.15,-0.08,38.53
11,-0.15,0.88,0.07,39.37
11,-0.03,0.88,0.12,40.85
11,0.02,1.70,0.24,40.85
11,-0.02,1.72,0.20,42.91
11,-0.02,1.72,-0.02,39.82
11,-0.11,0.53,-0.02,39.57
11,-0.09,0.18,-0.06,42.70
11,-0.09,0.17,0.14,38.73
11,0.01,0.92,0.14,39.24
11,0.06,1.72,0.32,39.24
11,0.06,1.61,0.23,39.31
11,-0.02,1.61,0.23,42.03
11,-0.10,0.44,-0.02,42.03
11,-0.12,0.22,-0.07,40.70
11,-0.12,0.22,0.11,44.23
11,-0.05,0.98,0.11,44.23
11,0.02,1.79,0.26,43.69
11,0.02,1.81,0.17,44.86
11,-0.01,1.56,0.17,44.95
11,-0.11,0.41,-0.05,39.46
11,-0.11,0.26,-0.04,41.32
11,-0.10,0.26,-0.04,39.19
11,0.02,1.05,0.18,39.19
11,0.01,1.80,0.32,41.42
11,0.07,1.80,0.37,42.63
11,0.01,1.48,0.18,42.63
11,-0.14,0.32,-0.04,43.55
11,-0.14,0.32,-0.05,42.56
11,-0.10,0.30,-0.05,42.51
11,-0.02,1.09,0.12,43.30
11,-0.02,1.08,0.26,40.35
11,0.03,1.83,0.26,41.78
11,-0.05,1.42,0.15,41.78
11,-0.06,0.26,-0.06,42.00
11,-0.12,0.26,-0.02,40.59
11,-0.06,0.36,-0.02,40.59
11,0.04,1.17,0.20,41.99
11,0.04,1.17,0.31,42.74
12,-0.03,1.26,0.10,41.22
12,-0.03,1.26,-0.07,45.07
12,-0.13,0.17,-0.07,45.31
12,-0.06,0.43,0.01,41.40
12,-0.06,1.24,0.23,44.53
12,0.05,1.24,0.23,38.03
12,0.07,1.90,0.31,38.03
12,0.09,1.17,0.12,41.68
12,-0.04,1.17,0.12,42.96
12,-0.14,0.15,-0.07,42.96
12,-0.06,0.48,-0.02,43.59
12,-0.06,0.48,0.17,39.76
12,0.01,1.34,0.17,39.76
12,0.02,1.94,0.25,42.11
12,0.02,2.00,0.08,45.69
12,-0.06,1.12,0.08,40.54
12,-0.12,0.11,-0.08,40.54
12,-0.12,0.52,0.03,42.07
12,-0.03,0.52,0.00,41.45
12,0.05,1.36,0.25,41.45
12,0.05,1.92,0.31,41.57
12,0.05,1.92,0.09,39.04
12,-0.06,1.00,0.09,39.04
12,-0.12,0.08,-0.09,39.01
12,-0.12,0.12,0.01,42.01
12,-0.10,0.55,0.01,42.06
12,0.00,1.41,0.20,38.92
12,0.00,1.93,0.26,40.18
12,0.03,1.93,0.26,41.83
12,-0.08,0.96,0.04,41.83
12,-0.12,0.10,-0.08,44.78
12,-0.12,0.10,-0.06,43.34
12,-0.03,0.60,0.06,43.34
12,0.06,1.47,0.27,43.56
12,0.06,1.47,0.29,41.98
12,0.06,1.93,0.29,41.46
12,-0.08,0.86,0.06,40.68
12,-0.08,0.84,-0.08,44.26
12,-0.14,0.09,-0.08,41.97
12,-0.06,0.67,0.03,41.97
12,-0.06,1.51,0.21,42.27
12,0.02,1.51,0.23,44.38
12,0.00,1.89,0.23,44.38
12,0.02,0.77,0.02,41.22
12,-0.10,0.77,-0.09,38.61
12,-0.09,0.10,-0.09,38.61
12,-0.01,0.72,0.09,40.05
12,-0.01,0.72,0.30,43.03
12,0.06,1.59,0.30,43.04
12,0.04,1.84,0.27,42.26
12,0.04,0.71,0.03,39.09
12,-0.09,0.71,0.03,42.03
12,-0.14,0.13,-0.08,42.03
12,-0.13,0.78,0.06,40.69
12,-0.07,0.78,0.05,40.92
12,0.02,1.63,0.23,40.92
12,0.02,1.78,0.21,38.69
12,0.02,1.78,-0.01,46.10
12,-0.09,0.64,-0.01,46.05
12,-0.12,0.12,-0.07,40.57
12,-0.12,0.07,0.12,44.61
12,-0.00,0.82,0.12,44.58
12,0.07,1.67,0.30,44.58
12,0.09,1.72,0.24,43.03
12,0.02,1.72,0.20,42.56
12,-0.11,0.55,0.01,42.56
12,-0.12,0.16,-0.08,41.15
12,-0.12,0.16,0.07,45.03
12,-0.02,0.91,0.07,45.03
12,0.01,1.73,0.25,40.08
12,0.01,1.69,0.19,40.62
12,-0.04,1.69,0.19,40.36
12,-0.10,0.50,-0.03,41.92
12,-0.10,0.20,-0.07,42.16
12,-0.09,0.20,-0.07,44.02
12,0.02,0.95,0.15,44.02
12,0.06,1.75,0.32,42.97
12,0.06,1.75,0.35,44.63
12,-0.02,1.59,0.23,44.63
12,-0.10,0.41,-0.03,43.07
12,-0.10,0.41,-0.07,40.34
12,-0.13,0.23,-0.07,40.03
12,-0.04,0.99,0.12,38.46
12,-0.04,1.79,0.26,42.10
12,0.03,1.79,0.26,40.90
12,-0.02,1.54,0.16,40.90
12,-0.06,0.39,-0.05,43.59
12,-0.12,0.39,-0.03,38.75
12,-0.09,0.27,-0.03,38.75
12,0.03,1.07,0.18,45.37
12,0.03,1.07,0.31,43.10
12,0.07,1.82,0.31,43.10
12,-0.00,1.46,0.17,43.69
12,-0.00,1.49,-0.04,42.14
12,-0.15,0.31,-0.04,41.90
12,-0.09,0.32,-0.06,41.90
12,-0.09,1.11,0.14,44.25
12,-0.03,1.11,0.14,40.06
12,0.02,1.83,0.26,40.06
12,0.02,1.40,0.14,45.52
12,-0.05,1.40,-0.06,41.31
12,-0.12,0.24,-0.06,41.31
12,-0.06,0.38,-0.02,44.70
12,-0.06,0.43,0.21,43.01
12,0.04,1.18,0.21,42.90
12,0.06,1.87,0.32,46.03
12,0.06,1.32,0.15,39.13
12,-0.04,1.32,0.15,40.02
12,-0.13,0.21,-0.07,40.02
12,-0.18,0.43,-0.03,43.71
12,-0.12,0.43,-0.02,37.44
12,-0.03,1.24,0.16,37.44
12,0.03,1.90,0.25,39.92
12,0.03,1.90,0.09,42.10
12,-0.03,1.23,0.09,41.55
12,-0.14,0.16,-0.07,41.55
12,-0.14,0.19,0.01,38.48
12,-0.05,0.44,0.01,40.72
12,0.05,1.26,0.23,40.72
12,0.05,1.91,0.31,38.80
12,0.08,1.91,0.31,41.24
12,-0.04,1.14,0.12,41.24
12,-0.01,0.12,-0.07,42.21
12,-0.14,0.12,-0.02,42.27
12,-0.06,0.50,-0.02,42.27
12,-0.00,1.35,0.19,39.09
12,-0.00,1.32,0.25,43.61
12,0.01,1.95,0.25,43.61
12,-0.07,1.10,0.08,44.39
12,-0.07,0.11,-0.09,43.34
12,-0.12,0.11,-0.09,45.35
12,-0.03,0.54,0.03,45.35
12,-0.01,1.38,0.25,44.87
12,0.05,1.38,0.31,37.93
12,0.06,1.92,0.31,37.93
12,-0.06,0.99,0.08,43.16
12,-0.06,0.99,-0.09,40.56
12,-0.13,0.09,-0.09,40.19
12,-0.09,0.57,0.02,43.32
12,-0.09,0.61,0.20,41.55
12,0.02,1.42,0.20,43.42
12,0.04,1.92,0.25,43.42
12,0.04,0.93,0.05,42.53
12,-0.09,0.93,0.04,42.57
12,-0.12,0.10,-0.08,42.57
12,-0.02,0.63,0.07,40.66
12,-0.02,0.63,0.28,45.34
12,0.07,1.49,0.28,45.34
12,0.06,1.93,0.29,44.64
12,0.06,1.90,0.06,41.55
12,-0.09,0.83,0.06,41.67
12,-0.13,0.09,-0.10,44.02
12,-0.13,0.69,0.03,39.43
12,-0.06,0.69,0.03,43.60
12,0.01,1.53,0.22,43.60
12,0.01,1.88,0.24,44.27
12,0.01,1.88,0.02,42.59
12,-0.09,0.75,0.02,42.59
12,-0.09,0.10,-0.09,43.70
12,-0.09,0.10,0.10,44.85
12,-0.01,0.72,0.10,44.85
12,0.05,1.59,0.31,42.50
12,0.05,1.82,0.28,44.64
12,0.03,1.82,0.28,44.19
12,-0.08,0.69,0.02,44.19
12,-0.08,0.14,-0.08,47.64
12,-0.14,0.14,-0.12,44.51
12,-0.05,0.80,0.07,44.51
12,0.03,1.64,0.23,42.03
12,0.03,1.64,0.21,41.57
12,0.02,1.77,0.21,41.76
12,-0.10,0.62,-0.01,42.55
12,-0.10,0.62,-0.07,42.63
12,-0.12,0.12,-0.07,42.02
12,-0.00,0.83,0.13,42.02
12,-0.00,1.68,0.31,44.02
12,0.07,1.68,0.30,40.72
12,0.02,1.71,0.24,40.72
12,0.01,0.53,0.01,42.77
12,-0.11,0.53,-0.08,45.49
12,-0.11,0.16,-0.08,45.49
12,-0.03,0.92,0.08,40.11
12,-0.03,0.92,0.26,44.57
12,0.01,1.73,0.26,44.43
12,-0.03,1.68,0.19,40.51
12,-0.03,0.48,-0.03,42.19
12,-0.10,0.48,-0.03,41.61
12,-0.10,0.21,-0.06,41.61
12,-0.11,0.96,0.16,42.14
12,0.01,0.96,0.14,40.23
12,0.05,1.76,0.33,40.23
12,-0.01,1.57,0.22,46.46
12,-0.01,1.57,-0.03,41.33
12,-0.10,0.40,-0.03,40.80
12,-0.13,0.23,-0.07,43.93
12,-0.13,0.24,0.11,47.07
12,-0.03,0.99,0.11,42.17
12,0.03,1.79,0.25,42.17
12,0.03,1.52,0.16,44.75
12,-0.02,1.52,0.14,44.66
12,-0.13,0.37,-0.05,44.66
12,-0.15,0.28,-0.03,42.88
12,-0.09,0.28,0.19,43.71
12,0.03,1.08,0.19,43.71
12,0.08,1.83,0.31,41.17
12,0.08,1.84,0.18,43.23
12,-0.01,1.46,0.18,43.22
12,-0.14,0.30,-0.04,40.08
12,-0.14,0.34,-0.06,40.82
12,-0.09,0.34,-0.06,41.23
12,-0.03,1.13,0.14,41.23
12,-0.05,1.84,0.26,44.21
12,0.01,1.84,0.26,40.80
12,-0.05,1.38,0.13,40.80
12,-0.12,0.23,-0.07,45.73
12,-0.12,0.23,-0.01,41.32
12,-0.06,0.38,-0.01,41.43
12,0.03,1.19,0.22,43.00
12,0.03,1.87,0.32,43.00
12,0.07,1.87,0.32,40.05
12,-0.02,1.31,0.15,40.05
12,-0.01,0.21,-0.06,43.55
12,-0.13,0.21,-0.03,42.18
12,-0.11,0.42,-0.03,42.18
12,-0.02,1.24,0.16,42.61
12,-0.02,1.24,0.25,41.25
12,0.03,1.91,0.25,41.25
12,-0.04,1.23,0.09,42.48
12,-0.04,1.21,-0.07,46.55
12,-0.14,0.14,-0.07,40.76
12,-0.04,0.43,0.01,40.76
12,-0.04,1.26,0.23,41.66
12,0.06,1.26,0.24,40.05
13,0.06,1.09,0.07,41.11
13,-0.06,1.09,0.10,45.57
13,-0.11,0.12,-0.09,45.57
13,-0.04,0.53,0.04,44.39
13,-0.04,0.53,0.26,41.22
13,0.05,1.39,0.26,41.22
13,0.06,1.92,0.31,41.34
13,0.06,1.92,0.08,42.59
13,-0.06,0.98,0.08,40.44
13,-0.14,0.08,-0.09,40.44
13,-0.14,0.56,0.02,40.48
13,-0.09,0.56,0.01,43.46
13,0.03,1.43,0.20,43.46
13,0.04,1.92,0.25,41.43
13,0.04,1.92,0.05,40.86
13,-0.09,0.92,0.05,40.86
13,-0.12,0.09,-0.08,43.78
13,-0.12,0.07,0.06,40.54
13,-0.02,0.64,0.06,40.13
13,0.07,1.51,0.28,41.69
13,0.07,1.93,0.28,41.31
13,0.06,1.93,0.28,40.81
13,-0.09,0.83,0.06,40.81
13,-0.12,0.08,-0.09,42.42
13,-0.12,0.08,-0.09,39.05
13,-0.08,0.70,0.03,39.05
13,0.00,1.54,0.22,46.56
13,0.00,1.54,0.24,41.27
13,0.00,1.88,0.24,41.10
13,-0.08,0.74,0.00,43.45
13,-0.08,0.72,-0.09,43.49
13,-0.10,0.10,-0.09,43.76
13,-0.01,0.73,0.11,43.76
13,-0.01,1.61,0.31,46.97
13,0.06,1.61,0.27,43.55
13,0.03,1.83,0.27,43.55
13,0.04,0.68,0.01,42.92
13,-0.09,0.68,-0.07,42.19
13,-0.15,0.12,-0.07,42.19
13,-0.05,0.80,0.06,39.34
13,-0.05,0.78,0.23,38.77
13,0.04,1.66,0.23,38.52
13,0.01,1.78,0.20,41.66
13,0.01,0.62,-0.01,40.70
13,-0.10,0.62,-0.01,42.40
13,-0.12,0.11,-0.08,42.40
13,-0.12,0.83,0.12,41.57
13,0.01,0.83,0.12,43.04
13,0.06,1.69,0.31,43.04
13,0.00,1.71,0.24,43.89
13,0.00,1.71,0.01,40.37
13,-0.12,0.52,0.01,40.19
13,-0.11,0.16,-0.08,39.41
13,-0.11,0.18,0.09,41.77
13,-0.04,0.93,0.09,42.23
13,0.01,1.75,0.26,42.23
13,0.04,1.68,0.18,44.78
13,-0.03,1.68,0.14,44.59
13,-0.09,0.48,-0.04,44.59
13,-0.10,0.20,-0.06,41.26
13,-0.10,0.20,0.16,42.74
13,0.01,0.96,0.16,42.74
13,0.06,1.76,0.33,38.94
13,0.06,1.76,0.21,44.88
13,-0.00,1.57,0.21,44.97
13,-0.12,0.39,-0.03,41.83
13,-0.12,0.22,-0.06,42.16
13,-0.13,0.22,-0.06,39.11
13,-0.02,1.00,0.11,39.11
13,-0.02,1.80,0.25,44.36
13,0.04,1.80,0.29,40.05
13,-0.03,1.52,0.16,40.05
13,-0.14,0.35,-0.04,39.07
13,-0.14,0.34,-0.04,40.99
13,-0.09,0.28,-0.04,40.85
13,0.04,1.09,0.19,42.41
13,0.04,1.84,0.31,38.53
13,0.08,1.84,0.31,47.38
13,-0.02,1.46,0.18,47.38
13,-0.01,0.29,-0.05,40.80
13,-0.14,0.29,-0.06,43.69
13,-0.10,0.34,-0.06,43.69
13,-0.03,1.14,0.14,43.28
13,-0.03,1.14,0.27,41.40
13,0.02,1.85,0.27,41.25
13,-0.04,1.37,0.13,42.03
13,-0.04,1.33,-0.07,42.07
13,-0.12,0.21,-0.07,39.40
13,-0.08,0.37,-0.01,39.40
13,-0.08,1.18,0.22,41.32
13,0.03,1.18,0.20,41.09
13,0.06,1.88,0.32,41.09
13,0.04,1.31,0.14,40.20
13,-0.02,1.31,-0.06,41.25
13,-0.14,0.20,-0.06,41.25
13,-0.10,0.42,-0.03,42.10
13,-0.10,0.38,0.16,42.76
13,-0.00,1.25,0.16,42.50
13,0.03,1.92,0.26,37.80
13,0.03,1.22,0.10,41.21
13,-0.05,1.22,0.10,41.03
13,-0.14,0.14,-0.07,41.03
13,-0.17,0.44,0.01,41.40
13,-0.04,0.44,0.05,43.17
13,0.06,1.27,0.23,43.17
13,0.07,1.93,0.31,45.06
13,0.07,1.93,0.12,44.44
13,-0.05,1.13,0.12,44.45
13,-0.11,0.10,-0.09,43.66
13,-0.11,0.07,-0.01,41.62
13,-0.09,0.51,-0.01,40.03
13,-0.01,1.36,0.19,40.03
13,-0.01,1.97,0.26,42.37
13,0.02,1.97,0.26,44.99
13,-0.06,1.08,0.07,44.99
13,-0.00,0.11,-0.09,40.65
13,-0.13,0.11,0.04,43.44
13,-0.04,0.52,0.04,43.44
13,0.05,1.39,0.26,37.61
13,0.05,1.42,0.31,45.38
13,0.06,1.92,0.31,45.53
13,-0.05,0.98,0.07,47.09
13,-0.05,0.08,-0.08,43.29
13,-0.15,0.08,-0.08,42.83
13,-0.07,0.57,0.01,42.83
13,-0.10,1.43,0.20,40.42
13,0.03,1.43,0.19,42.75
13,0.04,1.92,0.25,42.75
13,-0.10,0.91,0.05,41.70
13,-0.10,0.90,-0.08,39.18
13,-0.12,0.08,-0.08,39.88
13,-0.02,0.65,0.07,43.79
13,-0.02,1.51,0.28,47.36
13,0.07,1.51,0.28,42.44
13,0.06,1.92,0.29,42.44
13,0.04,0.82,0.06,46.50
13,-0.09,0.82,0.03,43.39
13,-0.12,0.09,-0.10,43.39
13,-0.08,0.70,0.04,42.18
13,-0.08,0.70,0.23,42.38
13,0.00,1.55,0.23,42.38
13,0.01,1.86,0.23,43.63
13,0.01,1.86,0.01,43.05
13,-0.08,0.73,0.01,43.53
13,-0.11,0.10,-0.08,41.18
13,-0.11,0.74,0.11,40.66
13,-0.01,0.74,0.12,43.34
13,0.06,1.62,0.31,43.34
13,0.04,1.83,0.27,42.03
13,0.04,1.83,0.02,39.85
13,-0.09,0.68,0.02,39.85
13,-0.15,0.12,-0.08,40.14
13,-0.15,0.12,0.06,43.58
13,-0.04,0.81,0.06,43.28
13,0.03,1.66,0.24,41.72
13,0.03,1.79,0.21,43.00
13,0.01,1.79,0.21,40.73
13,-0.11,0.60,-0.00,40.73
13,-0.11,0.11,-0.08,41.65
13,-0.11,0.11,-0.07,42.72
13,0.01,0.84,0.12,42.72
13,0.07,1.69,0.31,40.37
13,0.07,1.69,0.25,39.16
13,0.00,1.71,0.25,39.66
13,-0.11,0.53,0.00,40.45
13,-0.11,0.54,-0.08,45.69
13,-0.12,0.16,-0.08,45.14
13,-0.04,0.93,0.09,45.14
13,-0.04,1.74,0.26,45.25
13,0.01,1.74,0.31,44.60
13,-0.01,1.67,0.18,44.60
13,-0.03,0.49,-0.04,42.67
13,-0.09,0.49,-0.05,39.27
13,-0.11,0.20,-0.05,39.27
13,0.01,0.97,0.16,42.56
13,0.01,0.95,0.32,43.00
13,0.07,1.76,0.32,43.00
13,0.01,1.57,0.21,44.57
13,0.01,0.39,-0.03,40.70
13,-0.13,0.39,-0.03,40.42
13,-0.13,0.23,-0.07,40.42
13,-0.14,1.00,0.11,42.48
13,-0.02,1.00,0.07,41.21
13,0.03,1.79,0.25,41.21
13,-0.03,1.53,0.17,41.98
13,-0.03,1.53,-0.05,41.55
13,-0.13,0.36,-0.05,42.09
13,-0.08,0.28,-0.04,39.74
13,-0.08,0.28,0.19,39.60
13,0.03,1.09,0.19,44.57
13,0.07,1.83,0.32,44.57
13,0.10,1.45,0.19,40.28
13,-0.03,1.45,0.20,40.92
13,-0.13,0.29,-0.05,40.92
13,-0.12,0.34,-0.05,41.44
13,-0.12,0.34,0.14,43.15
13,-0.03,1.13,0.14,43.15
13,0.03,1.85,0.26,40.13
13,0.03,1.81,0.12,43.40
13,-0.03,1.38,0.12,43.62
13,-0.12,0.22,-0.07,45.19
13,-0.12,0.36,-0.01,41.34
13,-0.08,0.36,-0.01,44.62
13,0.03,1.18,0.22,44.62
13,0.01,1.88,0.32,40.50
13,0.07,1.88,0.15,38.83
13,-0.02,1.32,0.15,38.83
13,-0.14,0.20,-0.06,40.54
13,-0.14,0.22,-0.03,42.88
13,-0.09,0.41,-0.03,42.51
13,-0.01,1.25,0.16,45.64
13,-0.01,1.93,0.25,40.75
13,0.03,1.93,0.25,43.45
13,-0.06,1.23,0.11,43.45
13,-0.02,0.14,-0.07,43.50
13,-0.14,0.14,-0.12,43.09
13,-0.04,0.44,0.01,43.09
13,0.06,1.26,0.23,46.18
13,0.06,1.26,0.32,40.65
13,0.06,1.93,0.32,40.17
13,-0.05,1.14,0.12,43.30
13,-0.05,1.18,-0.08,40.81
13,-0.11,0.11,-0.08,42.29
13,-0.10,0.50,-0.01,42.29
13,-0.10,1.34,0.19,41.28
13,-0.01,1.34,0.20,41.99
13,0.02,1.97,0.26,41.99
13,0.01,1.09,0.07,41.63
13,-0.05,1.09,-0.09,43.15
13,-0.14,0.12,-0.09,43.15
13,-0.04,0.51,0.04,42.02
13,-0.04,0.51,0.26,44.32
13,0.06,1.39,0.26,44.24
14,0.03,1.92,0.05,44.52
14,-0.10,0.92,0.05,42.38
14,-0.11,0.10,-0.09,42.38
14,-0.11,0.63,0.06,45.71
14,-0.02,0.63,0.09,39.51
14,0.06,1.51,0.28,39.51
14,0.05,1.93,0.29,44.65
14,0.05,1.93,0.06,45.95
14,-0.08,0.83,0.06,45.95
14,-0.13,0.09,-0.10,38.99
14,-0.13,0.12,0.04,39.41
14,-0.08,0.69,0.04,39.21
14,0.02,1.54,0.23,40.78
14,0.02,1.87,0.23,41.41
14,0.01,1.87,0.23,40.49
14,-0.08,0.74,0.00,40.49
14,-0.12,0.08,-0.08,48.90
14,-0.12,0.08,-0.08,39.06
14,-0.01,0.72,0.10,39.06
14,0.06,1.62,0.31,43.76
14,0.06,1.60,0.27,41.18
14,0.04,1.85,0.27,41.13
14,-0.10,0.69,0.02,41.13
14,-0.10,0.11,-0.08,42.67
14,-0.14,0.11,-0.08,43.65
14,-0.04,0.80,0.05,43.65
14,-0.04,1.66,0.23,41.79
14,0.02,1.66,0.22,41.36
14,-0.01,1.80,0.22,41.36
14,-0.11,0.61,-0.01,42.22
14,-0.11,0.61,-0.09,44.57
14,-0.10,0.11,-0.09,43.93
14,0.00,0.83,0.12,40.80
14,0.00,0.87,0.31,41.72
14,0.06,1.69,0.31,40.79
14,-0.00,1.72,0.25,40.79
14,-0.00,0.53,0.00,40.71
14,-0.10,0.53,0.05,41.94
14,-0.13,0.15,-0.08,41.94
14,-0.17,0.91,0.09,42.29
14,-0.05,0.91,0.26,43.27
14,0.03,1.74,0.26,43.27
14,-0.01,1.70,0.18,42.60
14,-0.01,1.75,-0.04,41.88
14,-0.11,0.50,-0.04,41.97
14,-0.11,0.18,-0.06,41.19
14,-0.11,0.95,0.16,38.26
14,0.01,0.95,0.16,43.39
14,0.08,1.76,0.32,43.39
14,0.07,1.60,0.20,44.45
14,0.01,1.60,0.23,39.98
14,-0.14,0.39,-0.02,39.98
14,-0.12,0.21,-0.07,44.30
14,-0.12,0.21,0.11,43.20
14,-0.03,1.00,0.11,43.02
14,0.03,1.80,0.26,44.59
14,0.03,1.79,0.17,41.52
14,-0.04,1.54,0.17,43.98
14,-0.12,0.36,-0.05,43.98
14,-0.12,0.28,-0.04,42.82
14,-0.09,0.28,-0.00,39.10
14,0.03,1.09,0.19,39.10
14,0.01,1.83,0.32,39.85
14,0.07,1.83,0.19,42.63
14,-0.02,1.47,0.19,42.63
14,-0.13,0.29,-0.06,43.79
14,-0.13,0.27,-0.05,37.25
14,-0.11,0.33,-0.05,36.84
14,-0.03,1.11,0.14,43.11
14,-0.03,1.85,0.25,41.39
14,0.04,1.85,0.25,37.82
14,-0.03,1.39,0.13,37.82
14,-0.01,0.22,-0.07,45.11
14,-0.14,0.22,-0.07,38.58
14,-0.08,0.35,-0.01,38.58
14,0.04,1.17,0.21,41.67
14,0.04,1.14,0.32,37.65
14,0.07,1.89,0.32,37.84
14,-0.02,1.33,0.14,40.97
14,-0.02,0.20,-0.06,42.45
14,-0.14,0.20,-0.06,43.75
14,-0.08,0.40,-0.05,43.75
14,-0.08,1.25,0.16,43.21
14,-0.02,1.25,0.13,44.68
14,0.02,1.93,0.26,44.68
14,-0.06,1.25,0.11,40.47
14,-0.06,1.25,-0.08,40.87
14,-0.13,0.13,-0.08,40.87
14,-0.05,0.43,0.00,40.71
14,-0.05,0.38,0.23,41.13
14,0.05,1.25,0.23,39.31
14,0.06,1.93,0.32,39.31
14,0.06,1.15,0.12,42.23
14,-0.04,1.15,0.10,41.99
14,-0.12,0.11,-0.09,41.99
14,-0.10,0.48,-0.01,40.13
14,-0.10,0.48,0.19,38.34
14,0.01,1.33,0.19,38.34
14,0.04,1.97,0.25,47.31
14,0.04,1.98,0.08,42.77
14,-0.05,1.10,0.08,42.82
14,-0.14,0.11,-0.09,43.60
14,-0.14,0.50,0.03,42.19
14,-0.04,0.50,0.03,43.26
14,0.06,1.38,0.25,43.26
14,0.08,1.94,0.30,42.63
14,0.08,1.94,0.27,40.47
14,-0.07,0.99,0.09,40.47
14,-0.15,0.07,-0.08,41.19
14,-0.15,0.07,0.01,42.02
14,-0.07,0.55,0.01,41.93
14,0.02,1.44,0.20,41.93
14,0.02,1.44,0.26,46.98
14,0.03,1.94,0.26,46.97
14,-0.09,0.94,0.05,46.97
14,-0.09,0.09,-0.10,43.10
14,-0.11,0.09,-0.07,42.38
14,-0.02,0.61,0.06,42.38
14,-0.00,1.50,0.28,42.17
14,0.06,1.50,0.30,44.86
14,0.05,1.94,0.30,44.86
14,-0.07,0.84,0.05,41.94
14,-0.07,0.82,-0.10,42.34
14,-0.14,0.07,-0.10,42.79
14,-0.09,0.66,0.04,44.36
14,-0.09,1.52,0.22,42.17
14,0.03,1.52,0.22,39.94
14,0.03,1.89,0.23,39.94
14,0.04,0.77,0.02,42.00
14,-0.08,0.77,0.04,39.83
14,-0.12,0.07,-0.08,39.83
14,-0.01,0.71,0.09,40.65
14,-0.01,0.71,0.30,42.36
14,0.07,1.60,0.30,42.59
14,0.05,1.86,0.27,46.50
14,0.05,1.84,0.03,40.86
14,-0.10,0.71,0.03,42.71
14,-0.13,0.10,-0.09,42.71
14,-0.18,0.80,0.05,42.27
14,-0.05,0.80,0.05,45.37
14,0.02,1.65,0.23,45.37
14,-0.00,1.82,0.22,42.56
14,-0.00,1.82,-0.01,40.87
14,-0.11,0.63,-0.01,40.87
14,-0.11,0.10,-0.08,41.29
14,-0.11,0.07,0.12,40.92
14,-0.00,0.82,0.12,41.42
14,0.06,1.67,0.32,39.85
14,0.06,1.75,0.26,43.87
14,0.00,1.75,0.26,41.93
14,-0.09,0.55,-0.00,41.93
14,-0.08,0.14,-0.07,45.50
14,-0.15,0.14,0.08,42.20
14,-0.04,0.89,0.08,42.20
14,0.03,1.72,0.25,44.62
14,0.03,1.72,0.18,45.81
14,-0.01,1.72,0.18,45.48
14,-0.11,0.52,-0.03,43.13
14,-0.11,0.16,-0.06,47.64
14,-0.11,0.16,-0.06,41.36
14,0.02,0.94,0.15,41.36
14,0.02,1.74,0.32,44.96
14,0.08,1.74,0.33,47.97
14,0.01,1.62,0.20,47.97
14,-0.13,0.41,-0.01,41.20
14,-0.13,0.41,-0.08,45.11
14,-0.11,0.20,-0.08,44.94
14,-0.03,1.00,0.11,40.24
14,-0.03,0.98,0.26,40.02
14,0.02,1.79,0.26,40.73
14,-0.03,1.58,0.18,40.73
14,-0.03,0.38,-0.05,42.43
14,-0.12,0.38,-0.04,42.45
14,-0.09,0.26,-0.04,42.45
14,-0.10,1.07,0.18,44.52
14,0.03,1.07,0.32,40.44
14,0.06,1.83,0.32,40.44
14,-0.02,1.50,0.19,44.74
14,-0.02,1.49,-0.05,41.51
14,-0.13,0.30,-0.05,41.79
14,-0.13,0.30,-0.05,41.79
14,-0.13,1.08,0.13,42.81
14,-0.02,1.08,0.13,42.51
14,0.05,1.84,0.26,42.51
14,0.03,1.42,0.14,38.97
14,-0.03,1.42,0.13,38.62
14,-0.14,0.24,-0.06,38.62
14,-0.08,0.34,-0.01,42.37
14,-0.08,0.34,0.20,39.40
14,0.04,1.16,0.20,39.54
14,0.08,1.88,0.31,41.89
14,0.08,1.93,0.15,39.01
14,-0.02,1.37,0.15,42.48
14,-0.14,0.20,-0.06,42.48
14,-0.14,0.39,-0.05,40.29
14,-0.08,0.39,-0.03,41.97
14,-0.03,1.22,0.15,41.97
14,-0.05,1.92,0.26,40.28
14,0.02,1.92,0.11,38.39
14,-0.05,1.29,0.11,38.39
14,-0.12,0.14,-0.08,40.29
14,-0.12,0.16,0.00,43.39
14,-0.06,0.41,0.00,43.70
14,0.05,1.23,0.23,40.56
14,0.05,1.92,0.32,39.80
14,0.06,1.92,0.32,41.76
14,-0.03,1.18,0.13,41.76
14,-0.01,0.13,-0.07,39.89
14,-0.14,0.13,-0.07,41.68
14,-0.10,0.46,-0.01,41.68
14,0.01,1.31,0.18,45.69
14,0.01,1.31,0.25,43.66
14,0.04,1.96,0.25,43.18
14,-0.05,1.14,0.08,40.83
14,-0.05,0.11,-0.08,44.50
14,-0.15,0.11,-0.08,41.96
14,-0.04,0.49,0.02,41.96
14,-0.06,1.36,0.24,43.38
14,0.06,1.36,0.25,42.30
14,0.08,1.94,0.31,42.30
14,-0.07,1.03,0.09,42.89
14,-0.07,1.03,-0.08,39.24
14,-0.14,0.07,-0.08,39.24
14,-0.08,0.53,0.01,41.80
14,-0.08,0.54,0.20,39.90
14,0.01,1.42,0.20,40.04
14,0.02,1.96,0.26,41.61
14,0.02,0.98,0.05,41.70
14,-0.09,0.98,0.03,43.82
14,-0.11,0.09,-0.10,43.82
14,-0.09,0.58,0.05,45.01
14,-0.03,0.58,0.28,40.84
14,0.06,1.48,0.28,40.84
15,0.03,1.90,0.03,42.78
15,-0.10,0.81,0.03,42.42
15,-0.12,0.07,-0.08,40.85
15,-0.12,0.07,0.09,43.56
15,-0.01,0.70,0.09,42.13
15,0.08,1.59,0.29,42.13
15,0.08,1.89,0.28,42.38
15,0.06,1.89,0.29,45.34
15,-0.10,0.74,0.04,45.34
15,-0.07,0.09,-0.10,41.00
15,-0.13,0.09,0.05,43.83
15,-0.06,0.77,0.05,43.83
15,0.01,1.63,0.24,40.70
15,0.01,1.65,0.23,43.76
15,-0.00,1.84,0.23,43.79
15,-0.10,0.65,-0.01,42.22
15,-0.10,0.08,-0.09,41.27
15,-0.11,0.08,-0.09,41.71
15,-0.01,0.79,0.13,41.71
15,-0.00,1.65,0.32,43.62
15,0.06,1.65,0.33,41.89
15,0.01,1.78,0.27,41.89
15,-0.09,0.59,0.00,43.11
15,-0.09,0.56,-0.08,44.70
15,-0.15,0.13,-0.08,45.06
15,-0.04,0.87,0.08,38.80
15,-0.04,1.71,0.24,44.01
15,0.03,1.71,0.24,40.87
15,-0.00,1.75,0.19,40.87
15,-0.05,0.54,-0.02,40.60
15,-0.11,0.54,-0.01,43.94
15,-0.11,0.14,-0.07,43.94
15,0.02,0.92,0.14,39.37
15,0.02,0.92,0.31,40.30
15,0.08,1.73,0.31,40.30
15,0.01,1.65,0.22,44.52
15,0.01,1.68,-0.01,40.40
15,-0.13,0.43,-0.01,40.55
15,-0.12,0.18,-0.09,46.82
15,-0.12,0.98,0.11,43.38
15,-0.03,0.98,0.08,42.37
15,0.02,1.78,0.27,42.37
15,0.04,1.61,0.18,42.82
15,-0.02,1.61,-0.05,39.99
15,-0.11,0.40,-0.05,39.99
15,-0.10,0.24,-0.05,42.49
15,-0.10,0.22,0.18,39.91
15,0.02,1.03,0.18,40.17
15,0.07,1.81,0.32,44.87
15,0.07,1.52,0.20,43.28
15,-0.02,1.52,0.20,38.50
15,-0.13,0.32,-0.05,38.50
15,-0.13,0.26,-0.06,39.55
15,-0.13,0.26,-0.00,42.55
15,-0.02,1.05,0.12,42.55
15,0.06,1.84,0.26,40.53
15,0.06,1.84,0.15,43.17
15,-0.02,1.45,0.15,43.69
15,-0.14,0.27,-0.06,44.47
15,-0.14,0.31,-0.03,45.51
15,-0.08,0.31,-0.03,43.55
15,0.05,1.14,0.20,43.55
15,0.05,1.88,0.32,40.98
15,0.08,1.88,0.35,47.34
15,-0.03,1.40,0.16,47.34
15,-0.01,0.22,-0.07,41.64
15,-0.13,0.22,-0.06,43.35
15,-0.09,0.37,-0.06,43.35
15,-0.04,1.19,0.15,42.57
15,-0.04,1.22,0.27,42.72
15,0.01,1.90,0.27,42.47
15,-0.05,1.31,0.11,41.69
15,-0.05,0.17,-0.08,40.83
15,-0.12,0.17,-0.08,42.26
15,-0.07,0.39,-0.00,42.26
15,-0.08,1.21,0.22,44.68
15,0.04,1.21,0.20,46.07
15,0.07,1.92,0.32,46.07
15,-0.03,1.22,0.14,44.37
15,-0.03,1.22,-0.07,46.29
15,-0.14,0.15,-0.07,46.77
15,-0.10,0.43,-0.02,43.64
15,-0.10,0.43,0.17,41.47
15,0.01,1.30,0.17,43.15
15,0.05,1.95,0.25,43.15
15,0.01,1.17,0.09,42.83
15,-0.06,1.17,0.11,41.49
15,-0.15,0.12,-0.07,41.49
15,-0.04,0.46,0.02,41.58
15,-0.04,0.46,0.24,42.09
15,0.07,1.33,0.24,42.09
15,0.07,1.93,0.31,40.02
15,0.07,1.93,0.10,41.18
15,-0.07,1.06,0.10,41.07
15,-0.13,0.08,-0.09,44.98
15,-0.13,0.52,-0.00,42.05
15,-0.09,0.52,-0.00,45.15
15,-0.01,1.41,0.21,45.15
15,-0.04,1.97,0.26,40.89
15,0.02,1.97,0.31,43.50
15,-0.07,1.02,0.06,43.50
15,-0.12,0.10,-0.10,43.46
15,-0.12,0.11,0.05,40.31
15,-0.03,0.55,0.05,40.61
15,0.06,1.45,0.28,42.96
15,0.06,1.93,0.31,39.48
15,0.07,1.93,0.31,38.37
15,-0.06,0.92,0.06,38.37
15,-0.02,0.06,-0.10,40.09
15,-0.15,0.06,-0.11,40.80
15,-0.07,0.58,0.02,40.80
15,0.04,1.47,0.20,42.82
15,0.04,1.47,0.25,46.57
15,0.03,1.92,0.25,46.57
15,-0.10,0.86,0.05,44.57
15,-0.10,0.81,-0.08,40.95
15,-0.12,0.06,-0.08,47.24
15,-0.00,0.68,0.07,47.24
15,-0.00,1.55,0.29,40.50
15,0.07,1.55,0.28,39.54
15,0.05,1.91,0.28,39.54
15,0.03,0.79,0.05,38.62
15,-0.10,0.79,-0.10,44.48
15,-0.12,0.08,-0.10,44.48
15,-0.08,0.75,0.05,44.15
15,-0.08,0.78,0.24,41.14
15,0.01,1.59,0.24,41.10
15,0.01,1.87,0.24,43.45
15,0.01,0.69,0.00,44.77
15,-0.09,0.69,0.00,40.16
15,-0.12,0.06,-0.09,40.16
15,-0.08,0.75,0.11,44.05
15,-0.02,0.75,0.12,40.10
15,0.06,1.63,0.31,40.10
15,0.03,1.82,0.28,40.38
15,0.03,1.82,0.01,40.61
15,-0.09,0.64,0.01,40.45
15,-0.16,0.11,-0.07,43.59
15,-0.16,0.08,0.06,39.13
15,-0.04,0.83,0.06,45.39
15,0.03,1.69,0.24,45.39
15,0.03,1.79,0.20,46.81
15,0.00,1.79,0.24,42.92
15,-0.11,0.58,-0.01,42.92
15,-0.11,0.11,-0.07,42.81
15,-0.11,0.11,0.13,40.29
15,0.02,0.87,0.13,40.29
15,0.08,1.70,0.31,41.59
15,0.08,1.70,0.23,43.36
15,0.01,1.70,0.23,43.26
15,-0.12,0.48,-0.00,40.13
15,-0.12,0.16,-0.08,41.24
15,-0.13,0.16,-0.08,41.66
15,-0.04,0.94,0.10,41.66
15,-0.05,1.76,0.27,38.97
15,0.02,1.76,0.31,40.99
15,-0.01,1.67,0.18,40.99
15,-0.11,0.44,-0.05,43.47
15,-0.11,0.44,-0.06,44.17
15,-0.10,0.22,-0.06,44.10
15,0.02,0.99,0.17,43.31
15,0.02,1.78,0.33,41.21
15,0.07,1.78,0.33,44.73
15,-0.01,1.58,0.20,44.73
15,-0.02,0.36,-0.04,42.87
15,-0.14,0.36,-0.01,40.65
15,-0.13,0.22,-0.07,40.65
15,-0.02,1.02,0.11,38.10
15,-0.02,1.02,0.25,44.05
15,0.04,1.82,0.25,44.05
15,-0.03,1.51,0.16,44.36
15,-0.03,1.55,-0.05,41.04
15,-0.13,0.30,-0.05,40.89
15,-0.08,0.28,-0.04,40.89
15,-0.08,1.10,0.19,42.07
15,0.04,1.10,0.20,39.61
15,0.08,1.87,0.32,39.61
15,0.10,1.45,0.18,40.98
15,-0.02,1.45,-0.06,42.70
15,-0.13,0.26,-0.06,42.70
15,-0.11,0.34,-0.06,37.44
15,-0.11,0.33,0.14,41.79
15,-0.03,1.14,0.14,41.74
15,0.02,1.89,0.27,40.17
15,0.02,1.36,0.12,41.62
15,-0.03,1.36,0.12,40.71
15,-0.13,0.19,-0.07,40.71
15,-0.14,0.35,-0.01,44.42
15,-0.08,0.35,-0.03,41.61
15,0.04,1.19,0.22,41.61
15,0.07,1.91,0.32,42.24
15,0.07,1.91,0.14,45.97
15,-0.02,1.29,0.14,45.76
15,-0.15,0.17,-0.06,44.98
15,-0.15,0.16,-0.03,42.26
15,-0.10,0.41,-0.03,41.63
15,0.00,1.27,0.16,41.63
15,0.00,1.95,0.26,42.89
15,0.04,1.95,0.29,42.92
15,-0.06,1.21,0.10,42.92
15,-0.02,0.12,-0.08,39.01
15,-0.14,0.12,0.01,43.02
15,-0.04,0.43,0.01,43.02
15,0.07,1.29,0.23,40.73
15,0.07,1.25,0.32,40.58
15,0.07,1.94,0.32,40.01
15,-0.06,1.12,0.12,40.01
15,-0.06,0.09,-0.08,39.84
15,-0.12,0.09,-0.08,42.26
15,-0.10,0.48,-0.01,42.26
15,-0.07,1.38,0.20,39.36
15,-0.01,1.38,0.20,42.60
15,0.03,1.98,0.26,42.60
15,-0.05,1.08,0.06,39.69
15,-0.05,1.08,-0.09,42.18
15,-0.13,0.10,-0.09,42.15
15,-0.04,0.50,0.04,42.15
15,-0.04,1.41,0.27,43.36
15,0.06,1.41,0.27,42.58
15,0.07,1.93,0.31,42.58
15,0.06,0.97,0.07,41.02
15,-0.06,0.97,0.10,41.97
15,-0.15,0.05,-0.09,41.97
15,-0.07,0.54,0.01,40.68
15,-0.07,0.54,0.20,44.02
15,0.03,1.46,0.20,43.86
15,0.04,1.93,0.26,39.16
15,0.04,1.92,0.05,44.06
15,-0.10,0.92,0.05,43.28
15,-0.12,0.06,-0.09,43.28
15,-0.12,0.63,0.06,42.65
15,-0.02,0.63,0.04,38.39
15,0.07,1.53,0.29,38.39
16,0.02,1.89,0.19,42.55
16,-0.08,0.75,0.00,42.55
16,-0.12,0.06,-0.09,43.00
16,-0.12,0.06,0.10,40.28
16,-0.02,0.72,0.10,40.48
16,0.07,1.61,0.31,42.83
16,0.07,1.61,0.27,43.41
16,0.05,1.86,0.27,41.16
16,-0.10,0.68,0.02,41.16
16,-0.08,0.09,-0.09,42.34
16,-0.14,0.09,-0.07,41.32
16,-0.04,0.81,0.05,41.32
16,0.02,1.66,0.24,43.47
16,0.02,1.66,0.21,39.97
16,0.00,1.83,0.21,39.97
16,-0.12,0.60,-0.01,40.61
16,-0.12,0.58,-0.09,38.55
16,-0.11,0.08,-0.09,38.91
16,0.01,0.83,0.12,44.39
16,0.01,1.69,0.31,42.96
16,0.08,1.69,0.25,41.77
16,0.01,1.76,0.25,41.77
16,0.02,0.52,-0.00,42.26
16,-0.10,0.52,-0.08,40.28
16,-0.14,0.13,-0.08,40.28
16,-0.05,0.90,0.09,47.29
16,-0.05,0.93,0.26,43.64
16,0.03,1.74,0.26,43.66
16,-0.01,1.72,0.19,40.53
16,-0.01,0.48,-0.05,40.45
16,-0.11,0.48,-0.05,43.46
16,-0.12,0.17,-0.06,43.46
16,-0.11,0.95,0.15,43.82
16,0.01,0.95,0.14,40.95
16,0.08,1.76,0.32,40.95
16,0.00,1.62,0.22,45.93
16,0.00,1.62,-0.02,41.18
16,-0.14,0.39,-0.02,40.97
16,-0.12,0.19,-0.08,45.67
16,-0.12,0.24,0.10,39.04
16,-0.02,0.99,0.10,39.49
16,0.03,1.81,0.26,39.49
16,0.03,1.57,0.17,46.75
16,-0.03,1.57,0.13,46.13
16,-0.12,0.36,-0.06,46.13
16,-0.08,0.27,-0.05,43.02
16,-0.08,0.27,0.18,41.84
16,0.03,1.06,0.18,41.84
16,0.07,1.85,0.32,45.76
16,0.07,1.87,0.20,41.18
16,-0.02,1.49,0.20,41.39
16,-0.12,0.28,-0.05,43.74
16,-0.12,0.30,-0.05,39.81
16,-0.12,0.30,-0.05,43.44
16,-0.03,1.10,0.14,43.44
16,-0.02,1.87,0.26,43.47
16,0.04,1.87,0.26,42.09
16,-0.02,1.40,0.13,42.09
16,-0.14,0.24,-0.06,40.83
16,-0.14,0.24,-0.02,43.25
16,-0.09,0.33,-0.02,43.56
16,0.04,1.17,0.21,39.65
16,0.04,1.15,0.32,40.09
16,0.08,1.90,0.32,40.54
16,-0.02,1.35,0.15,40.54
16,-0.02,0.21,-0.06,39.18
16,-0.15,0.21,-0.05,44.25
16,-0.09,0.39,-0.05,44.25
16,-0.08,1.24,0.15,44.60
16,-0.02,1.24,0.26,45.05
16,0.03,1.93,0.26,45.05
16,-0.06,1.27,0.11,42.68
16,-0.06,1.25,-0.08,42.76
16,-0.13,0.13,-0.08,42.52
16,-0.04,0.40,0.00,45.65
16,-0.04,1.25,0.23,45.03
16,0.06,1.25,0.23,40.97
16,0.07,1.93,0.32,40.97
16,0.08,1.18,0.13,40.99
16,-0.05,1.18,0.16,47.02
16,-0.13,0.13,-0.09,47.02
16,-0.11,0.45,-0.01,42.17
16,-0.11,0.45,0.19,41.14
16,-0.00,1.33,0.19,40.85
16,0.04,1.97,0.26,40.85
16,0.04,1.14,0.07,41.37
16,-0.04,1.14,0.07,42.02
16,-0.14,0.11,-0.09,42.02
16,-0.17,0.47,0.03,41.54
16,-0.04,0.47,0.06,41.43
16,0.07,1.36,0.25,41.43
16,0.08,1.94,0.31,42.07
16,0.08,1.94,0.09,41.09
16,-0.06,1.04,0.09,41.38
16,-0.15,0.06,-0.08,41.38
16,-0.15,0.08,-0.00,44.09
16,-0.07,0.52,-0.00,42.98
16,0.01,1.42,0.20,42.98
16,0.01,1.95,0.26,40.32
16,0.02,1.95,0.31,42.48
16,-0.09,1.00,0.06,42.48
16,-0.12,0.08,-0.10,40.82
16,-0.12,0.08,0.05,42.45
16,-0.03,0.59,0.05,42.45
16,0.06,1.47,0.28,42.85
16,0.06,1.50,0.32,41.81
16,0.05,1.93,0.32,41.84
16,-0.07,0.89,0.07,40.28
16,-0.07,0.05,-0.10,42.88
16,-0.13,0.05,-0.10,43.62
16,-0.09,0.64,0.03,43.62
16,-0.10,1.50,0.21,40.35
16,0.03,1.50,0.24,40.23
16,0.03,1.90,0.24,40.23
16,-0.08,0.81,0.02,39.87
16,-0.08,0.81,-0.08,40.17
16,-0.13,0.05,-0.08,40.23
16,-0.02,0.69,0.09,40.23
16,-0.02,0.70,0.30,46.44
16,0.07,1.57,0.30,43.41
16,0.06,1.92,0.28,43.41
16,0.10,0.75,0.04,38.49
16,-0.09,0.75,0.03,48.06
16,-0.13,0.07,-0.10,48.06
16,-0.05,0.75,0.04,43.96
16,-0.05,0.75,0.24,41.25
16,0.01,1.62,0.24,41.25
16,0.00,1.87,0.23,43.10
16,0.00,1.85,0.00,43.26
16,-0.11,0.66,0.00,43.06
16,-0.10,0.07,-0.09,41.49
16,-0.10,0.77,0.11,43.80
16,-0.00,0.77,0.11,38.58
16,0.07,1.65,0.31,38.58
16,0.08,1.81,0.27,40.36
16,0.02,1.81,0.01,42.60
16,-0.09,0.60,0.01,42.60
16,-0.16,0.13,-0.08,42.50
16,-0.16,0.16,0.07,42.13
16,-0.05,0.85,0.07,41.55
16,0.03,1.71,0.25,44.68
16,0.03,1.78,0.20,39.82
16,0.01,1.78,0.20,44.54
16,-0.10,0.54,-0.03,44.54
16,-0.12,0.13,-0.08,40.94
16,-0.12,0.13,-0.12,40.99
16,0.01,0.88,0.13,40.99
16,0.08,1.72,0.31,41.94
16,0.08,1.72,0.22,45.02
16,0.01,1.69,0.22,44.81
16,-0.13,0.45,-0.00,43.24
16,-0.13,0.47,-0.08,44.41
16,-0.11,0.15,-0.08,42.76
16,-0.03,0.95,0.09,42.76
16,-0.03,1.79,0.26,46.49
16,0.03,1.79,0.31,42.26
16,-0.02,1.66,0.18,42.26
16,-0.04,0.41,-0.05,41.02
16,-0.10,0.41,-0.06,42.29
16,-0.09,0.23,-0.06,42.29
16,0.02,1.00,0.16,42.80
16,0.02,1.00,0.33,40.99
16,0.06,1.82,0.33,40.85
16,-0.01,1.55,0.21,40.07
16,-0.01,0.33,-0.06,38.94
16,-0.12,0.33,-0.06,43.18
16,-0.13,0.24,-0.07,43.18
16,-0.16,1.01,0.12,45.70
16,-0.03,1.01,0.07,43.49
16,0.05,1.84,0.26,43.49
16,-0.02,1.48,0.15,44.68
16,-0.02,1.48,-0.06,47.60
16,-0.14,0.30,-0.06,47.27
16,-0.09,0.28,-0.03,43.35
16,-0.09,0.30,0.19,42.87
16,0.03,1.11,0.19,40.29
16,0.09,1.89,0.32,40.29
16,0.09,1.43,0.17,42.31
16,-0.02,1.43,0.13,45.75
16,-0.14,0.25,-0.06,45.75
16,-0.09,0.34,-0.06,40.12
16,-0.09,0.34,0.15,46.96
16,-0.02,1.17,0.15,46.96
16,0.02,1.91,0.27,40.53
16,0.02,1.91,0.12,41.80
16,-0.05,1.34,0.12,41.58
16,-0.13,0.17,-0.08,43.15
16,-0.13,0.36,-0.01,41.18
16,-0.07,0.36,-0.01,43.15
16,0.04,1.21,0.22,43.15
16,0.01,1.92,0.32,44.89
16,0.07,1.92,0.33,40.08
16,-0.02,1.27,0.14,40.08
16,-0.14,0.16,-0.08,43.79
16,-0.14,0.17,-0.02,42.20
16,-0.11,0.42,-0.02,42.13
16,-0.00,1.28,0.17,43.70
16,-0.00,1.96,0.26,38.83
16,0.05,1.96,0.26,43.26
16,-0.04,1.20,0.09,43.26
16,-0.03,0.11,-0.08,40.14
16,-0.15,0.11,-0.11,44.33
16,-0.04,0.43,0.01,44.33
16,0.07,1.31,0.23,40.13
16,0.07,1.31,0.31,39.45
16,0.09,1.94,0.31,39.45
16,-0.06,1.11,0.11,39.87
16,-0.06,1.07,-0.08,41.22
16,-0.15,0.07,-0.08,40.69
16,-0.07,0.49,-0.02,42.26
16,-0.07,1.40,0.20,45.01
16,-0.00,1.40,0.20,42.97
16,0.02,1.97,0.27,42.97
16,0.05,1.08,0.07,42.03
16,-0.07,1.08,-0.09,38.63
16,-0.12,0.08,-0.09,38.63
16,-0.04,0.53,0.04,42.48
16,-0.04,0.55,0.27,40.96
16,0.06,1.42,0.27,40.93
16,0.06,1.94,0.32,41.72
16,0.06,0.97,0.07,40.85
16,-0.06,0.97,0.07,43.71
16,-0.15,0.03,-0.10,43.71
16,-0.14,0.56,0.01,40.80
16,-0.08,0.56,0.02,43.30
16,0.04,1.46,0.21,43.30
16,0.05,1.94,0.26,40.57
16,0.05,1.94,0.04,38.98
16,-0.09,0.90,0.04,38.77
16,-0.14,0.04,-0.09,41.12
16,-0.14,0.01,0.07,37.77
16,-0.02,0.64,0.07,41.56
16,0.08,1.53,0.29,41.56
17,0.00,1.91,0.24,44.30
17,-0.10,0.72,0.01,44.30
17,-0.11,0.05,-0.10,41.55
17,-0.11,0.05,-0.09,42.89
17,-0.02,0.72,0.10,42.89
17,0.07,1.62,0.31,41.27
17,0.07,1.57,0.28,41.29
17,0.04,1.88,0.28,40.72
17,-0.09,0.67,0.02,42.28
17,-0.09,0.10,-0.08,40.93
17,-0.17,0.10,-0.08,45.65
17,-0.06,0.79,0.06,45.65
17,-0.03,1.67,0.24,42.92
17,0.03,1.67,0.21,39.89
17,0.01,1.83,0.21,39.89
17,-0.11,0.59,-0.01,39.87
17,-0.11,0.59,-0.08,40.58
17,-0.12,0.08,-0.08,40.58
17,0.00,0.82,0.12,42.42
17,0.00,0.83,0.31,41.64
17,0.09,1.70,0.31,43.29
17,0.02,1.76,0.25,43.29
17,0.02,0.50,0.01,42.79
17,-0.12,0.50,0.04,40.97
17,-0.12,0.12,-0.09,40.97
17,-0.10,0.91,0.09,45.74
17,-0.04,0.91,0.27,42.98
17,0.02,1.77,0.27,42.98
17,-0.02,1.73,0.19,43.74
17,-0.02,1.72,-0.04,41.19
17,-0.10,0.47,-0.04,41.22
17,-0.11,0.17,-0.07,41.22
17,-0.11,0.95,0.16,41.23
17,0.01,0.95,0.16,38.75
17,0.07,1.78,0.33,38.75
17,0.12,1.62,0.22,39.98
17,-0.01,1.62,0.22,38.89
17,-0.12,0.38,-0.03,38.89
17,-0.15,0.19,-0.07,42.72
17,-0.15,0.19,0.10,41.26
17,-0.02,0.98,0.10,41.12
17,0.05,1.82,0.26,39.55
17,0.05,1.57,0.17,39.55
17,-0.02,1.57,0.17,42.26
17,-0.14,0.36,-0.05,42.26
17,-0.16,0.24,-0.04,45.06
17,-0.10,0.24,-0.01,43.49
17,0.04,1.07,0.18,43.49
17,0.09,1.86,0.32,46.19
17,0.09,1.86,0.19,41.25
17,-0.02,1.50,0.19,41.25
17,-0.14,0.28,-0.05,44.07
17,-0.14,0.29,-0.06,42.98
17,-0.10,0.29,-0.06,43.94
17,-0.03,1.10,0.14,43.94
17,-0.03,1.87,0.27,42.31
17,0.02,1.87,0.27,39.91
17,-0.04,1.40,0.15,39.91
17,-0.06,0.23,-0.07,42.09
17,-0.12,0.23,-0.02,41.77
17,-0.09,0.32,-0.02,41.77
17,0.03,1.17,0.21,41.91
17,0.03,1.14,0.32,45.70
17,0.08,1.89,0.32,45.90
17,-0.01,1.37,0.15,44.34
17,-0.01,0.19,-0.07,48.90
17,-0.15,0.19,-0.07,43.63
17,-0.12,0.37,-0.04,43.63
17,-0.07,1.23,0.15,46.95
17,-0.01,1.23,0.14,40.78
17,0.04,1.92,0.26,40.78
17,-0.05,1.29,0.11,42.48
17,-0.05,1.29,-0.07,41.32
17,-0.15,0.12,-0.07,41.45
17,-0.05,0.39,-0.00,41.45
17,-0.05,0.38,0.22,44.17
17,0.06,1.26,0.22,46.34
17,0.09,1.93,0.31,46.34
17,0.09,1.20,0.13,44.22
17,-0.05,1.20,0.17,41.78
17,-0.14,0.11,-0.08,41.78
17,-0.15,0.46,-0.02,41.29
17,-0.09,0.46,0.19,39.62
17,-0.01,1.34,0.19,39.62
17,0.02,1.98,0.26,41.17
17,0.02,1.97,0.08,44.94
17,-0.05,1.15,0.08,44.67
17,-0.13,0.09,-0.09,39.97
17,-0.13,0.48,0.03,46.20
17,-0.05,0.48,0.03,39.26
17,0.05,1.36,0.26,39.26
17,0.00,1.95,0.32,40.61
17,0.06,1.95,0.34,42.02
17,-0.05,1.05,0.09,42.02
17,-0.15,0.04,-0.09,44.44
17,-0.15,0.04,-0.00,39.51
17,-0.07,0.51,-0.00,39.65
17,0.02,1.42,0.19,44.35
17,0.02,1.96,0.26,42.97
17,0.04,1.96,0.26,42.28
17,-0.09,1.01,0.06,42.28
17,-0.07,0.06,-0.09,40.56
17,-0.13,0.06,-0.08,45.15
17,-0.02,0.58,0.05,45.15
17,0.08,1.47,0.27,41.44
17,0.08,1.47,0.31,39.79
17,0.07,1.96,0.31,39.79
17,-0.08,0.89,0.07,41.43
17,-0.08,0.90,-0.11,42.21
17,-0.12,0.03,-0.11,42.18
17,-0.09,0.62,0.03,42.18
17,-0.09,1.49,0.22,39.35
17,0.02,1.49,0.19,42.90
17,0.03,1.95,0.26,42.90
17,0.05,0.82,0.03,40.08
17,-0.08,0.82,-0.09,38.96
17,-0.12,0.05,-0.09,38.96
17,-0.03,0.67,0.08,40.82
17,-0.03,0.68,0.30,43.76
17,0.06,1.56,0.30,43.23
17,0.06,1.94,0.29,45.58
17,0.06,0.76,0.04,41.68
17,-0.08,0.76,0.04,39.83
17,-0.16,0.07,-0.08,39.83
17,-0.18,0.73,0.04,40.13
17,-0.06,0.73,0.03,43.69
17,0.04,1.60,0.22,43.69
17,0.02,1.88,0.23,41.28
17,0.02,1.88,0.00,40.84
17,-0.11,0.66,0.00,40.84
17,-0.12,0.05,-0.09,44.74
17,-0.12,0.02,0.11,42.32
17,-0.00,0.77,0.11,39.74
17,0.08,1.66,0.30,39.74
17,0.08,1.83,0.27,39.20
17,0.03,1.83,0.27,42.70
17,-0.11,0.60,0.02,42.70
17,-0.07,0.11,-0.09,39.58
17,-0.13,0.11,0.07,41.43
17,-0.06,0.85,0.07,41.43
17,0.01,1.72,0.26,42.98
17,0.01,1.74,0.21,41.79
17,-0.00,1.80,0.21,42.10
17,-0.09,0.54,-0.03,41.32
17,-0.09,0.11,-0.08,43.55
17,-0.12,0.11,-0.08,39.32
17,-0.00,0.86,0.14,39.32
17,-0.06,1.73,0.32,41.86
17,0.07,1.73,0.36,42.03
17,0.01,1.71,0.23,42.03
17,-0.12,0.46,-0.01,42.81
17,-0.12,0.46,-0.07,45.83
17,-0.15,0.15,-0.07,45.70
17,-0.01,0.93,0.09,47.27
17,-0.01,0.92,0.26,39.97
17,0.04,1.79,0.26,42.52
17,-0.02,1.68,0.18,42.52
17,-0.02,0.44,-0.04,43.10
17,-0.13,0.44,-0.01,46.29
17,-0.10,0.19,-0.07,46.29
17,0.02,0.99,0.15,41.38
17,0.02,0.99,0.32,43.03
17,0.08,1.81,0.32,43.03
17,-0.02,1.58,0.21,41.97
17,-0.02,1.59,-0.04,39.79
17,-0.13,0.34,-0.04,39.55
17,-0.13,0.22,-0.08,45.03
17,-0.13,1.02,0.12,39.05
17,-0.05,1.02,0.09,39.90
17,0.03,1.84,0.27,39.90
17,0.04,1.51,0.16,41.75
17,-0.02,1.51,-0.07,41.09
17,-0.11,0.32,-0.07,41.09
17,-0.10,0.27,-0.03,38.77
17,-0.10,0.30,0.20,39.01
17,0.03,1.11,0.20,38.90
17,0.08,1.87,0.32,42.03
17,0.08,1.45,0.17,44.19
17,-0.00,1.45,0.17,44.39
17,-0.15,0.25,-0.05,44.39
17,-0.17,0.31,-0.06,40.99
17,-0.11,0.31,-0.05,44.01
17,-0.01,1.15,0.13,44.01
17,0.03,1.88,0.26,44.28
17,0.03,1.88,0.13,42.41
17,-0.05,1.37,0.13,42.41
17,-0.14,0.17,-0.07,44.28
17,-0.14,0.16,-0.02,40.68
17,-0.06,0.35,-0.02,45.13
17,0.05,1.21,0.21,45.13
17,0.05,1.91,0.32,41.30
17,0.08,1.91,0.33,37.29
17,-0.04,1.32,0.15,37.29
17,-0.00,0.17,-0.07,43.55
17,-0.13,0.17,-0.03,44.50
17,-0.11,0.42,-0.03,44.50
17,-0.02,1.27,0.18,41.34
17,-0.02,1.27,0.27,42.43
17,0.03,1.96,0.27,42.98
17,-0.04,1.22,0.09,44.55
17,-0.04,0.10,-0.08,40.50
17,-0.15,0.10,-0.08,42.62
17,-0.06,0.41,0.01,42.62
17,-0.07,1.28,0.24,39.46
17,0.05,1.28,0.19,42.47
17,0.07,1.95,0.32,42.47
17,-0.04,1.14,0.11,44.34
17,-0.04,1.14,-0.08,41.18
17,-0.15,0.06,-0.08,41.16
17,-0.07,0.46,-0.01,41.16
17,-0.07,0.44,0.19,41.15
17,0.01,1.37,0.19,45.73
17,0.03,2.00,0.26,45.73
17,0.03,1.11,0.08,42.63
17,-0.07,1.11,0.09,40.98
17,-0.14,0.06,-0.09,40.98
17,-0.15,0.51,0.03,40.25
17,-0.03,0.51,0.26,42.67
17,0.06,1.40,0.26,42.67
17,0.06,1.97,0.32,41.74
17,0.06,1.99,0.08,40.20
17,-0.07,0.99,0.08,40.10
17,-0.13,0.03,-0.11,37.75
17,-0.13,0.55,0.02,43.90
17,-0.10,0.55,0.02,40.44
17,0.01,1.43,0.21,40.44
17,0.04,1.97,0.27,42.24
17,0.04,1.97,0.29,45.75
17,-0.08,0.93,0.04,45.75
17,-0.13,0.06,-0.09,39.44
17,-0.13,0.10,0.06,45.64
17,-0.03,0.60,0.06,45.65
17,0.07,1.51,0.29,40.95
18,0.01,1.94,0.24,45.10
18,-0.11,0.76,0.02,44.32
18,-0.11,0.04,-0.10,42.93
18,-0.11,0.04,-0.10,42.74
18,-0.01,0.71,0.09,42.74
18,-0.05,1.62,0.31,41.90
18,0.07,1.62,0.28,39.52
18,0.05,1.91,0.28,39.52
18,-0.09,0.70,0.03,39.46
18,-0.09,0.70,-0.10,41.83
18,-0.14,0.08,-0.10,41.80
18,-0.07,0.77,0.06,40.24
18,-0.07,1.66,0.25,42.03
18,0.03,1.66,0.25,39.49
18,0.02,1.85,0.22,39.49
18,0.04,0.62,-0.02,42.80
18,-0.09,0.62,-0.02,45.91
18,-0.13,0.06,-0.08,45.91
18,-0.01,0.79,0.13,42.52
18,-0.01,0.79,0.31,39.72
18,0.08,1.69,0.31,39.59
18,0.03,1.79,0.26,45.86
18,0.03,1.81,0.01,44.43
18,-0.11,0.56,0.01,43.21
18,-0.14,0.10,-0.08,43.21
18,-0.14,0.89,0.07,40.99
18,-0.02,0.89,0.07,41.08
18,0.03,1.75,0.25,41.08
18,0.05,1.77,0.20,40.01
18,-0.02,1.77,-0.03,43.26
18,-0.12,0.51,-0.03,43.26
18,-0.10,0.13,-0.08,44.44
18,-0.10,0.16,0.14,41.53
18,0.01,0.91,0.14,41.77
18,0.07,1.75,0.33,40.20
18,0.07,1.67,0.23,40.33
18,-0.01,1.67,0.23,37.37
18,-0.11,0.41,-0.03,37.37
18,-0.08,0.15,-0.08,39.31
18,-0.14,0.15,-0.08,43.94
18,-0.04,0.96,0.11,43.94
18,0.04,1.81,0.27,43.49
18,0.04,1.81,0.18,44.47
18,-0.01,1.62,0.18,43.89
18,-0.12,0.40,-0.05,43.10
18,-0.12,0.39,-0.05,42.85
18,-0.11,0.20,-0.05,38.52
18,0.02,1.03,0.18,38.52
18,0.02,1.83,0.32,39.91
18,0.09,1.83,0.37,41.98
18,0.00,1.54,0.18,41.98
18,-0.15,0.31,-0.05,40.96
18,-0.15,0.31,-0.07,39.70
18,-0.12,0.23,-0.07,39.70
18,-0.02,1.07,0.12,43.96
18,-0.02,1.10,0.26,42.15
18,0.04,1.85,0.26,42.09
18,-0.04,1.48,0.16,40.52
18,-0.04,0.26,-0.07,42.61
18,-0.13,0.26,-0.07,46.66
18,-0.08,0.30,-0.04,46.66
18,-0.08,1.14,0.20,42.80
18,0.04,1.14,0.32,39.69
18,0.08,1.89,0.32,39.69
18,-0.03,1.42,0.18,41.43
18,-0.03,1.40,-0.07,42.20
18,-0.14,0.21,-0.07,41.54
18,-0.13,0.35,-0.05,44.67
18,-0.13,1.18,0.15,44.39
18,-0.03,1.18,0.15,42.57
18,0.04,1.91,0.26,42.57
18,0.03,1.34,0.11,41.33
18,-0.03,1.34,0.12,41.14
18,-0.14,0.14,-0.07,41.14
18,-0.07,0.36,-0.01,41.11
18,-0.07,0.36,0.22,43.19
18,0.05,1.22,0.22,43.19
18,0.09,1.94,0.32,44.94
18,0.09,1.96,0.14,45.20
18,-0.02,1.27,0.14,45.84
18,-0.15,0.12,-0.07,45.84
18,-0.15,0.42,-0.04,41.07
18,-0.08,0.42,-0.02,47.15
18,-0.00,1.30,0.17,47.15
18,-0.02,1.99,0.26,41.40
18,0.04,1.99,0.10,42.23
18,-0.06,1.21,0.10,42.23
18,-0.13,0.08,-0.09,39.10
18,-0.13,0.12,0.01,41.54
18,-0.05,0.44,0.01,42.20
18,0.06,1.30,0.25,42.20
18,0.06,1.97,0.32,42.93
18,0.07,1.97,0.32,39.03
18,-0.05,1.09,0.11,39.03
18,-0.01,0.06,-0.10,41.18
18,-0.13,0.06,-0.07,40.47
18,-0.10,0.49,-0.00,40.47
18,0.01,1.38,0.20,42.91
18,0.01,1.38,0.26,40.06
18,0.04,2.00,0.26,40.54
18,-0.06,1.07,0.06,45.24
18,-0.06,1.06,-0.09,44.28
18,-0.15,0.06,-0.09,42.43
18,-0.03,0.52,0.04,42.43
18,-0.03,1.43,0.26,39.76
18,0.07,1.43,0.31,43.42
18,0.08,1.97,0.31,43.42
18,-0.07,0.95,0.07,43.33
18,-0.07,0.95,-0.09,41.37
18,-0.15,0.03,-0.09,41.37
18,-0.07,0.57,0.01,43.00
18,-0.07,0.60,0.21,40.77
18,0.02,1.48,0.21,41.39
18,0.03,1.97,0.27,42.17
18,0.03,0.88,0.05,43.41
18,-0.09,0.88,0.05,42.48
18,-0.11,0.04,-0.10,42.48
18,-0.09,0.62,0.06,44.33
18,-0.03,0.62,0.11,40.88
18,0.06,1.54,0.30,40.88
18,0.05,1.97,0.30,41.52
18,0.05,1.97,0.04,44.06
18,-0.08,0.81,0.04,44.18
18,-0.15,0.04,-0.10,42.62
18,-0.15,0.66,0.04,42.35
18,-0.08,0.66,0.04,43.70
18,0.04,1.56,0.22,43.70
18,0.03,1.91,0.24,42.00
18,0.03,1.91,0.20,39.18
18,-0.10,0.74,0.01,39.18
18,-0.13,0.04,-0.08,44.66
18,-0.13,0.04,0.09,45.95
18,-0.01,0.72,0.09,45.95
18,0.08,1.64,0.31,39.94
18,0.08,1.63,0.27,39.58
18,0.05,1.88,0.27,40.58
18,-0.12,0.67,0.03,40.58
18,-0.12,0.07,-0.09,40.78
18,-0.14,0.07,-0.07,43.27
18,-0.05,0.81,0.05,43.27
18,-0.05,1.69,0.24,44.66
18,0.02,1.69,0.23,45.91
18,0.00,1.84,0.23,45.91
18,-0.10,0.58,-0.01,42.41
18,-0.10,0.57,-0.09,42.72
18,-0.11,0.07,-0.09,42.29
18,-0.00,0.82,0.13,43.86
18,-0.00,1.71,0.32,47.44
18,0.07,1.71,0.32,42.45
18,0.01,1.77,0.26,42.45
18,0.03,0.52,-0.01,47.03
18,-0.09,0.52,-0.01,42.13
18,-0.15,0.11,-0.08,42.13
18,-0.03,0.90,0.09,43.90
18,-0.03,0.90,0.26,44.98
18,0.04,1.76,0.26,44.90
18,0.00,1.76,0.19,40.99
18,0.00,1.79,-0.03,42.55
18,-0.12,0.48,-0.03,39.70
18,-0.12,0.12,-0.07,39.70
18,-0.12,0.94,0.15,40.88
18,0.02,0.94,0.13,44.72
18,0.09,1.77,0.32,44.72
18,0.07,1.65,0.22,43.06
18,0.01,1.65,-0.02,44.83
18,-0.13,0.38,-0.02,44.83
18,-0.12,0.17,-0.09,45.42
18,-0.12,0.13,0.11,42.28
18,-0.04,1.00,0.11,42.96
18,0.03,1.82,0.28,44.53
18,0.03,1.61,0.18,41.62
18,-0.03,1.61,0.18,41.51
18,-0.12,0.35,-0.06,41.51
18,-0.10,0.24,-0.05,47.12
18,-0.10,0.24,-0.01,41.85
18,0.02,1.06,0.18,41.85
18,0.06,1.85,0.33,40.73
18,0.06,1.84,0.20,41.99
18,-0.01,1.53,0.20,41.54
18,-0.14,0.28,-0.06,47.03
18,-0.14,0.25,-0.06,43.48
18,-0.13,0.25,-0.06,47.37
18,-0.01,1.08,0.13,47.37
18,-0.01,1.87,0.26,44.56
18,0.05,1.87,0.26,41.36
18,-0.02,1.44,0.14,41.36
18,-0.15,0.22,-0.06,42.70
18,-0.15,0.22,-0.02,41.47
18,-0.09,0.31,-0.02,41.73
18,0.05,1.16,0.21,41.73
18,0.05,1.17,0.32,43.24
18,0.09,1.92,0.32,41.03
18,-0.02,1.39,0.16,41.03
18,-0.02,0.18,-0.07,42.97
18,-0.15,0.18,-0.12,39.95
18,-0.10,0.36,-0.06,39.95
18,-0.03,1.22,0.16,42.38
18,-0.03,1.22,0.27,43.23
18,0.02,1.94,0.27,43.23
18,-0.05,1.31,0.12,42.21
18,-0.05,1.25,-0.09,43.02
18,-0.13,0.13,-0.09,43.38
18,-0.07,0.38,-0.00,41.81
18,-0.07,1.23,0.23,43.02
18,0.05,1.23,0.20,43.17
18,0.07,1.96,0.33,43.17
18,0.10,1.22,0.13,45.62
18,-0.03,1.22,-0.08,40.85
18,-0.15,0.12,-0.08,40.85
18,-0.10,0.43,-0.02,43.01
18,-0.10,0.38,0.18,39.50
18,0.01,1.32,0.18,39.65
18,0.05,1.99,0.25,42.79
18,0.05,1.16,0.08,41.36
18,-0.05,1.16,0.08,40.10
18,-0.16,0.07,-0.08,40.10
18,-0.17,0.45,0.01,44.83
18,-0.04,0.45,0.06,43.24
18,0.06,1.34,0.24,43.24
18,0.08,1.97,0.31,43.11
18,0.08,1.97,0.10,37.19
18,-0.06,1.05,0.10,36.92
18,-0.14,0.04,-0.10,38.49
18,-0.14,0.51,-0.01,44.61
18,-0.08,0.51,-0.01,42.88
18,-0.00,1.43,0.21,42.88
18,-0.04,2.01,0.26,43.03
18,0.03,2.01,0.30,45.08
18,-0.08,1.03,0.05,45.08
18,-0.12,0.06,-0.10,39.50
18,-0.12,0.06,0.05,44.94
18,-0.04,0.53,0.05,45.04
19,0.04,1.45,0.26,40.97
19,0.05,1.95,0.26,41.10
19,-0.09,0.88,0.04,43.45
19,-0.09,0.04,-0.09,37.88
19,-0.13,0.04,-0.09,42.17
19,-0.02,0.64,0.07,42.17
19,-0.05,1.56,0.29,42.82
19,0.08,1.56,0.29,47.02
19,0.06,1.96,0.29,47.02
19,-0.10,0.79,0.05,42.61
19,-0.10,0.79,-0.11,42.97
19,-0.13,0.04,-0.11,42.39
19,-0.07,0.71,0.03,46.31
19,-0.07,1.58,0.24,39.95
19,0.01,1.58,0.24,41.49
19,0.01,1.90,0.24,41.49
19,0.03,0.70,-0.00,42.24
19,-0.10,0.70,-0.03,42.61
19,-0.12,0.05,-0.09,42.61
19,-0.02,0.74,0.11,44.62
19,-0.02,0.74,0.32,41.27
19,0.07,1.64,0.32,41.04
19,0.04,1.87,0.28,41.83
19,0.04,1.84,0.01,42.21
19,-0.09,0.65,0.01,37.90
19,-0.17,0.07,-0.08,37.90
19,-0.18,0.81,0.06,42.93
19,-0.05,0.81,0.06,42.15
19,0.04,1.69,0.24,42.15
19,0.01,1.83,0.21,39.23
19,0.01,1.83,-0.01,41.18
19,-0.11,0.57,-0.01,41.18
19,-0.12,0.06,-0.08,39.76
19,-0.12,0.02,0.13,42.81
19,0.01,0.83,0.13,42.72
19,0.08,1.72,0.32,42.72
19,0.08,1.77,0.25,42.87
19,0.03,1.77,0.25,41.04
19,-0.12,0.50,-0.00,41.04
19,-0.07,0.12,-0.09,44.66
19,-0.13,0.12,0.09,41.72
19,-0.05,0.92,0.09,41.72
19,0.02,1.77,0.27,42.34
19,0.02,1.75,0.19,43.30
19,-0.01,1.75,0.19,43.70
19,-0.10,0.45,-0.05,39.00
19,-0.10,0.15,-0.07,41.53
19,-0.11,0.15,-0.07,40.06
19,0.01,0.94,0.15,40.06
19,0.01,1.78,0.33,41.11
19,0.07,1.78,0.35,43.62
19,0.00,1.65,0.22,43.62
19,-0.13,0.36,-0.03,45.19
19,-0.13,0.35,-0.07,39.83
19,-0.15,0.17,-0.07,39.26
19,-0.02,0.98,0.11,39.26
19,-0.02,1.84,0.26,44.40
19,0.05,1.84,0.26,47.41
19,-0.02,1.59,0.17,47.41
19,-0.01,0.34,-0.06,42.89
19,-0.14,0.34,-0.05,39.99
19,-0.10,0.23,-0.05,39.99
19,0.03,1.06,0.18,40.30
19,0.03,1.06,0.32,40.69
19,0.09,1.87,0.32,41.21
19,-0.02,1.52,0.20,38.08
19,-0.02,1.51,-0.06,39.11
19,-0.13,0.26,-0.06,44.22
19,-0.10,0.27,-0.07,44.22
19,-0.10,1.09,0.14,40.98
19,-0.04,1.09,0.15,40.56
19,0.03,1.89,0.27,40.56
19,-0.03,1.44,0.15,44.55
19,-0.03,1.44,-0.08,41.37
19,-0.13,0.22,-0.08,41.37
19,-0.09,0.32,-0.02,42.75
19,-0.09,0.34,0.21,44.66
19,0.04,1.16,0.21,44.85
19,0.08,1.92,0.33,40.94
19,0.08,1.39,0.15,43.31
19,-0.01,1.39,0.18,43.72
19,-0.15,0.19,-0.07,43.72
19,-0.18,0.35,-0.05,41.80
19,-0.11,0.35,0.15,44.62
19,-0.01,1.22,0.15,44.62
19,0.04,1.95,0.26,45.47
19,0.04,1.98,0.11,42.71
19,-0.06,1.29,0.11,42.49
19,-0.15,0.11,-0.07,45.62
19,-0.15,0.37,-0.01,40.71
19,-0.05,0.37,-0.01,46.70
19,0.07,1.25,0.22,46.70
19,0.09,1.96,0.32,44.42
19,0.09,1.96,0.32,43.58
19,-0.05,1.21,0.13,43.58
19,-0.13,0.10,-0.08,42.97
19,-0.13,0.10,-0.02,45.56
19,-0.10,0.44,-0.02,45.84
19,-0.02,1.34,0.18,40.36
19,-0.02,2.01,0.27,40.12
19,0.04,2.01,0.27,38.31
19,-0.04,1.16,0.08,38.31
19,-0.01,0.07,-0.09,42.02
19,-0.14,0.07,-0.10,42.43
19,-0.05,0.44,0.02,42.43
19,0.05,1.35,0.25,39.43
19,0.05,1.35,0.31,42.05
19,0.08,1.97,0.31,42.05
19,-0.04,1.06,0.09,41.66
19,-0.04,1.10,-0.08,40.93
19,-0.16,0.03,-0.08,43.45
19,-0.08,0.48,-0.01,43.45
19,-0.08,1.43,0.20,41.14
19,0.02,1.43,0.20,43.90
19,0.04,2.00,0.26,43.90
19,0.03,1.04,0.06,42.59
19,-0.09,1.04,-0.10,41.24
19,-0.13,0.04,-0.10,41.24
19,-0.03,0.54,0.04,43.64
19,-0.03,0.54,0.27,41.69
19,0.08,1.48,0.27,42.10
19,0.06,1.97,0.32,39.75
19,0.06,0.93,0.07,39.80
19,-0.08,0.93,0.07,42.16
19,-0.13,0.00,-0.11,42.16
19,-0.15,0.59,0.02,40.62
19,-0.09,0.59,0.04,41.26
19,0.02,1.50,0.22,41.26
19,0.04,1.96,0.26,40.15
19,0.04,1.98,0.03,44.03
19,-0.07,0.85,0.03,44.31
19,-0.13,0.03,-0.10,44.31
19,-0.13,0.65,0.08,43.83
19,-0.03,0.65,0.08,44.76
19,0.06,1.56,0.30,44.76
19,0.00,1.97,0.30,44.22
19,0.06,1.97,0.29,43.90
19,-0.08,0.78,0.04,43.90
19,-0.16,0.02,-0.10,42.19
19,-0.16,0.02,0.03,40.10
19,-0.06,0.70,0.03,40.51
19,0.03,1.59,0.23,42.07
19,0.03,1.60,0.24,42.50
19,0.01,1.91,0.24,40.88
19,-0.12,0.69,0.01,40.88
19,-0.12,0.02,-0.09,43.34
19,-0.11,0.02,-0.09,43.68
19,-0.01,0.75,0.10,43.68
19,0.08,1.65,0.31,42.68
19,0.08,1.65,0.28,44.11
19,0.04,1.89,0.28,44.11
19,-0.09,0.64,0.02,44.37
19,-0.09,0.64,-0.10,43.45
19,-0.15,0.08,-0.10,43.31
19,-0.07,0.83,0.07,46.45
19,-0.07,1.69,0.25,43.00
19,0.02,1.69,0.22,46.49
19,0.01,1.84,0.22,46.49
19,0.03,0.54,-0.03,42.59
19,-0.09,0.54,-0.09,45.41
19,-0.12,0.07,-0.09,45.41
19,0.00,0.83,0.13,45.69
19,0.00,0.85,0.32,42.65
19,0.08,1.72,0.32,42.70
19,0.02,1.78,0.25,40.35
19,0.02,0.48,-0.00,40.61
19,-0.13,0.48,-0.00,41.33
19,-0.14,0.11,-0.07,41.33
19,-0.14,0.91,0.09,42.10
19,-0.02,0.91,0.08,42.72
19,0.03,1.79,0.27,42.72
19,-0.01,1.76,0.19,44.32
19,-0.01,1.76,-0.04,46.16
19,-0.12,0.43,-0.04,46.24
19,-0.10,0.14,-0.07,43.10
19,-0.10,0.95,0.15,44.43
19,0.02,0.95,0.15,43.48
19,0.08,1.80,0.33,43.48
19,0.11,1.64,0.23,41.40
19,-0.02,1.64,0.22,40.47
19,-0.11,0.35,-0.03,40.47
19,-0.14,0.18,-0.08,41.90
19,-0.14,0.18,0.12,39.26
19,-0.04,0.99,0.12,39.26
19,0.03,1.85,0.27,39.77
19,0.03,1.83,0.17,45.34
19,-0.01,1.58,0.17,43.81
19,-0.13,0.34,-0.07,43.81
19,-0.13,0.23,-0.04,42.20
19,-0.12,0.23,-0.06,47.25
19,0.02,1.06,0.19,47.25
19,0.02,1.88,0.33,41.50
19,0.09,1.88,0.18,41.15
19,-0.00,1.51,0.18,41.15
19,-0.15,0.25,-0.05,42.08
19,-0.15,0.25,-0.07,45.30
19,-0.11,0.25,-0.07,45.03
19,-0.01,1.10,0.13,45.81
19,-0.01,1.89,0.27,42.44
19,0.03,1.89,0.27,43.38
19,-0.04,1.43,0.15,43.38
19,-0.01,0.20,-0.07,45.42
19,-0.14,0.20,-0.09,37.95
19,-0.08,0.31,-0.03,37.95
19,0.04,1.18,0.21,40.31
19,0.04,1.17,0.33,45.25
19,0.08,1.92,0.33,44.63
19,-0.03,1.39,0.17,43.06
19,-0.03,0.18,-0.09,44.52
19,-0.13,0.18,-0.09,45.14
19,-0.13,0.37,-0.04,45.14
19,-0.16,1.22,0.17,43.88
19,-0.03,1.22,0.14,39.37
19,0.04,1.94,0.27,39.37
19,-0.03,1.29,0.09,40.55
19,-0.03,1.29,-0.08,42.69
19,-0.15,0.12,-0.08,43.00
19,-0.06,0.36,0.00,41.44
19,-0.06,0.37,0.23,41.71
19,0.06,1.25,0.23,39.66
19,0.10,1.95,0.32,39.66
19,0.10,1.22,0.12,42.91
19,-0.03,1.22,0.11,43.81
19,-0.17,0.10,-0.07,43.81
19,-0.08,0.42,-0.04,43.15
19,-0.08,0.42,0.18,46.17
19,0.01,1.34,0.18,46.17
19,0.03,2.00,0.27,44.58
19,0.03,1.99,0.09,44.24
19,-0.06,1.18,0.09,44.30
19,-0.14,0.06,-0.09,44.30
19,-0.14,0.46,0.01,45.38
20,0.01,1.41,0.20,40.59
