seconds, accX, accY, accZ, temp
30,0.03,1.05,0.14,41.26
30,0.04,2.02,0.51,41.49
30,0.16,2.02,0.55,37.88
30,-0.05,1.49,0.18,37.88
30,-0.10,0.26,-0.40,38.82
30,-0.10,0.26,-0.23,39.31
30,-0.01,0.33,-0.23,39.31
30,0.05,1.12,0.27,39.30
30,0.05,1.12,0.56,40.51
30,0.10,2.07,0.56,39.90
30,-0.06,1.32,0.11,39.12
30,-0.06,1.33,-0.46,40.91
30,-0.15,0.08,-0.46,41.42
30,-0.06,0.45,-0.22,38.29
30,-0.06,1.19,0.23,39.31
30,-0.04,1.19,0.23,40.64
30,0.04,2.12,0.49,40.64
30,0.03,1.11,-0.02,37.64
30,-0.04,1.11,-0.02,39.48
30,-0.17,0.02,-0.46,39.48
30,-0.16,0.47,-0.15,38.29
30,0.03,0.47,-0.14,36.81
30,0.21,1.46,0.36,36.81
30,0.12,2.08,0.55,40.39
30,0.12,2.08,-0.05,39.56
30,-0.08,0.91,-0.05,39.56
30,-0.22,-0.13,-0.48,39.58
30,-0.22,-0.15,-0.12,38.48
30,-0.01,0.60,-0.12,39.07
30,0.23,1.71,0.39,36.72
30,0.23,1.70,0.45,36.66
30,0.04,2.08,0.45,38.23
30,-0.09,0.68,-0.18,38.23
30,-0.09,-0.20,-0.45,39.97
30,-0.15,-0.20,-0.45,38.86
30,0.04,0.74,0.02,38.86
30,0.04,1.77,0.46,38.71
30,0.10,1.77,0.45,39.93
30,0.05,2.00,0.45,39.93
30,-0.09,0.57,-0.23,37.78
30,-0.09,0.57,-0.44,38.40
30,-0.18,-0.17,-0.44,38.40
30,-0.01,0.83,-0.01,37.26
30,-0.01,0.83,0.43,36.13
30,0.01,1.88,0.43,36.45
30,0.03,1.87,0.31,38.80
30,0.03,1.82,-0.31,37.75
30,-0.13,0.45,-0.31,38.30
30,-0.11,-0.08,-0.40,37.51
30,-0.11,0.94,0.12,36.62
30,0.06,0.94,0.12,35.71
30,0.18,1.95,0.53,35.71
30,0.18,1.69,0.29,38.60
30,-0.01,1.69,0.26,38.64
30,-0.09,0.33,-0.37,38.64
30,-0.10,0.21,-0.33,39.97
30,-0.10,0.21,-0.35,38.68
30,-0.02,1.05,0.15,38.68
30,0.15,2.03,0.50,37.15
30,0.15,2.03,0.16,37.78
30,-0.02,1.46,0.16,37.78
30,-0.11,0.22,-0.41,38.28
30,-0.11,0.21,-0.23,39.72
30,-0.04,0.34,-0.23,39.66
30,0.05,1.12,0.28,39.66
30,0.05,1.11,0.54,39.06
30,0.11,2.05,0.54,37.55
30,-0.03,1.31,0.10,37.55
30,-0.03,0.11,-0.45,36.84
30,-0.19,0.11,-0.45,37.93
30,-0.01,0.44,-0.24,37.93
30,-0.03,1.20,0.25,39.82
30,-0.03,1.20,0.25,36.40
30,0.01,2.15,0.50,36.40
30,0.06,1.10,-0.02,37.39
30,-0.07,1.10,-0.48,38.64
30,-0.18,-0.02,-0.48,38.64
30,0.04,0.50,-0.13,39.08
30,0.04,0.50,0.38,38.90
30,0.21,1.49,0.38,38.90
30,0.09,2.13,0.55,42.01
30,0.09,2.16,-0.09,39.34
30,-0.06,0.84,-0.09,39.66
30,-0.19,-0.13,-0.47,38.87
30,-0.19,0.58,-0.13,39.54
30,-0.05,0.58,-0.13,37.36
30,0.23,1.68,0.36,37.36
30,0.23,2.08,0.45,38.44
30,0.08,2.08,0.45,40.96
30,-0.10,0.68,-0.17,40.96
30,-0.11,-0.17,-0.46,38.35
30,-0.17,-0.17,-0.44,38.30
30,0.05,0.75,-0.00,38.30
30,0.11,1.73,0.46,36.40
30,0.11,1.73,0.44,38.58
30,0.06,2.01,0.44,38.58
30,-0.13,0.57,-0.23,38.21
30,-0.13,0.57,-0.44,36.84
30,-0.15,-0.14,-0.44,36.78
30,-0.02,0.86,0.00,38.34
30,-0.02,0.87,0.45,36.04
30,-0.01,1.94,0.45,36.31
30,0.01,1.84,0.29,37.88
30,0.01,0.40,-0.33,36.56
30,-0.10,0.40,-0.33,37.00
30,-0.10,-0.01,-0.38,37.00
30,-0.07,0.94,0.13,40.24
30,0.05,0.94,0.16,38.96
30,0.17,1.94,0.53,38.96
30,0.13,1.64,0.26,38.22
30,0.00,1.64,0.26,39.41
30,-0.11,0.32,-0.36,39.41
30,-0.09,0.19,-0.33,37.97
30,-0.09,0.19,0.15,39.45
30,-0.01,1.05,0.15,39.45
30,0.15,2.03,0.53,36.15
30,0.15,2.02,0.17,39.12
30,-0.05,1.45,0.17,39.37
30,-0.11,0.22,-0.40,40.15
30,-0.11,0.23,-0.23,37.59
30,-0.02,0.36,-0.23,36.06
30,0.04,1.14,0.27,36.06
30,0.04,2.08,0.56,38.95
30,0.10,2.08,0.56,37.96
30,-0.05,1.27,0.10,37.96
30,-0.03,0.07,-0.45,38.27
30,-0.16,0.07,-0.46,36.50
30,-0.07,0.44,-0.21,36.50
30,-0.12,1.21,0.25,38.41
30,0.01,1.21,0.47,39.95
30,0.05,2.11,0.47,39.95
30,-0.04,1.08,-0.03,37.75
30,-0.04,1.08,-0.47,38.64
30,-0.17,0.02,-0.47,38.64
30,0.04,0.51,-0.12,37.48
30,0.04,0.55,0.38,34.90
30,0.22,1.49,0.38,34.76
30,0.12,2.09,0.54,40.25
30,0.12,0.87,-0.07,40.83
30,-0.10,0.87,-0.07,36.49
30,-0.20,-0.13,-0.49,36.49
30,-0.20,0.64,-0.09,38.29
30,-0.03,0.64,-0.09,39.10
30,0.20,1.75,0.36,39.10
30,0.24,2.06,0.44,37.51
30,0.05,2.06,0.44,36.49
30,-0.08,0.64,-0.18,36.49
30,-0.14,-0.19,-0.45,38.32
30,-0.14,-0.19,0.02,40.93
30,0.03,0.77,0.02,40.93
30,0.09,1.77,0.48,36.57
30,0.09,1.77,0.43,35.18
30,0.06,1.98,0.43,34.51
30,-0.10,0.56,-0.25,41.56
30,-0.10,0.55,-0.43,41.38
30,-0.18,-0.14,-0.43,40.76
30,0.01,0.87,0.01,36.85
30,0.01,1.90,0.44,36.04
30,0.00,1.90,0.44,39.05
30,-0.01,1.86,0.30,39.05
30,-0.01,0.43,-0.33,40.63
30,-0.10,0.43,-0.37,37.84
30,-0.07,-0.03,-0.37,37.84
30,-0.07,0.96,0.13,38.15
30,0.06,0.96,0.16,36.96
30,0.18,1.96,0.53,36.96
30,-0.03,1.64,0.28,37.50
30,-0.03,1.64,-0.38,36.76
30,-0.09,0.29,-0.38,36.76
30,-0.11,0.26,-0.32,35.21
30,-0.11,0.27,0.15,37.87
30,-0.03,1.02,0.15,37.70
30,0.16,2.03,0.49,38.48
30,0.16,2.01,0.14,35.37
30,-0.03,1.45,0.14,35.41
30,-0.11,0.19,-0.41,36.19
30,-0.11,0.35,-0.23,39.13
30,-0.04,0.35,-0.23,37.58
30,0.06,1.14,0.28,37.58
30,0.06,2.06,0.56,39.29
30,0.12,2.06,0.53,36.47
30,-0.05,1.26,0.09,36.47
30,-0.05,0.07,-0.46,37.83
30,-0.18,0.07,-0.22,35.58
30,-0.01,0.47,-0.22,35.58
30,-0.01,1.25,0.26,39.51
30,-0.01,1.25,0.51,39.72
30,0.02,2.16,0.51,39.72
30,-0.07,1.05,-0.03,35.58
30,-0.07,1.04,-0.48,36.55
30,-0.17,-0.03,-0.48,36.09
30,0.00,0.50,-0.11,36.88
30,0.00,1.52,0.39,38.71
30,0.21,1.52,0.39,37.92
30,0.10,2.12,0.55,37.92
30,0.10,0.81,-0.10,40.88
30,-0.05,0.81,-0.10,36.85
30,-0.20,-0.12,-0.46,36.85
30,-0.22,0.60,-0.11,37.69
30,-0.03,0.60,-0.08,39.36
30,0.20,1.70,0.36,39.36
30,0.06,2.08,0.45,38.31
30,0.06,2.08,-0.19,37.53
30,-0.11,0.63,-0.19,37.53
30,-0.15,-0.19,-0.45,37.98
30,-0.15,-0.19,0.03,35.88
30,0.05,0.78,0.03,35.52
30,0.12,1.78,0.48,38.65
30,0.12,1.80,0.44,35.52
31,-0.10,0.40,-0.34,37.39
31,-0.10,0.39,-0.36,37.36
31,-0.10,0.01,-0.36,37.48
31,0.06,0.95,0.14,39.05
31,0.06,1.97,0.53,37.88
31,0.19,1.97,0.53,35.11
31,-0.01,1.61,0.25,35.11
31,-0.01,0.31,-0.39,36.30
31,-0.12,0.31,-0.39,40.33
31,-0.08,0.23,-0.33,40.33
31,-0.09,1.08,0.17,37.10
31,-0.03,1.08,0.16,39.75
31,0.15,2.06,0.53,39.75
31,-0.06,1.41,0.15,37.33
31,-0.06,1.41,-0.43,36.32
31,-0.10,0.18,-0.43,36.32
31,-0.02,0.35,-0.23,37.63
31,-0.02,0.32,0.30,37.90
31,0.06,1.19,0.30,38.16
31,0.09,2.09,0.57,35.81
31,0.09,2.08,0.07,38.56
31,-0.03,1.21,0.07,38.94
31,-0.18,0.05,-0.45,37.38
31,-0.18,0.44,-0.22,37.98
31,-0.05,0.44,-0.22,39.83
31,0.03,1.25,0.27,39.83
31,0.05,2.12,0.49,39.84
31,0.05,2.12,0.46,42.58
31,-0.06,1.06,-0.04,42.58
31,-0.05,-0.03,-0.47,39.68
31,-0.18,-0.03,-0.49,38.16
31,0.05,0.52,-0.11,38.16
31,0.23,1.55,0.40,38.90
31,0.23,1.55,0.53,36.70
31,0.10,2.10,0.53,36.70
31,-0.09,0.84,-0.09,40.02
31,-0.09,0.83,-0.49,37.74
31,-0.19,-0.17,-0.49,37.91
31,-0.04,0.66,-0.09,36.34
31,-0.04,1.79,0.38,39.96
31,0.20,1.79,0.38,39.52
31,0.05,2.02,0.44,39.52
31,0.05,0.60,-0.20,37.14
31,-0.07,0.60,-0.20,38.14
31,-0.15,-0.22,-0.43,38.14
31,-0.15,0.77,0.03,37.22
31,0.03,0.77,0.04,36.32
31,0.10,1.79,0.48,36.32
31,0.09,1.95,0.41,36.43
31,0.09,1.95,-0.25,37.98
31,-0.13,0.53,-0.25,37.98
31,-0.16,-0.12,-0.43,38.68
31,-0.16,-0.12,0.03,38.04
31,0.02,0.91,0.03,38.18
31,0.01,1.93,0.45,38.96
31,0.01,1.88,0.29,38.33
31,-0.02,1.82,0.29,38.96
31,-0.10,0.39,-0.35,36.61
31,-0.10,0.03,-0.38,37.68
31,-0.06,0.03,-0.38,36.80
31,0.06,0.97,0.16,36.80
31,0.05,1.97,0.54,36.83
31,0.18,1.97,0.56,36.79
31,-0.03,1.60,0.24,36.79
31,-0.03,0.24,-0.39,37.89
31,-0.09,0.24,-0.38,39.04
31,-0.11,0.29,-0.31,39.04
31,-0.03,1.03,0.18,39.68
31,-0.03,1.03,0.50,36.05
31,0.15,1.98,0.50,36.05
31,-0.03,1.40,0.12,38.47
31,-0.03,1.42,-0.42,38.97
31,-0.10,0.17,-0.42,38.81
31,0.01,0.37,-0.19,36.46
31,0.01,0.34,0.28,34.69
31,0.09,1.21,0.28,37.26
31,0.11,2.05,0.56,37.26
31,0.11,1.21,0.08,38.41
31,-0.05,1.21,0.08,39.43
31,-0.15,0.04,-0.47,39.43
31,-0.15,0.51,-0.20,38.02
31,-0.02,0.51,-0.24,38.60
31,0.03,1.37,0.26,38.60
31,0.03,2.12,0.50,39.83
31,0.03,2.12,-0.06,37.30
31,-0.07,0.98,-0.06,37.30
31,-0.17,-0.05,-0.47,36.70
31,-0.17,-0.05,-0.10,38.44
31,0.02,0.55,-0.10,38.44
31,0.20,1.57,0.40,38.24
31,0.20,1.59,0.53,39.02
31,0.11,2.09,0.53,38.72
31,-0.07,0.78,-0.12,35.59
31,-0.07,-0.14,-0.46,38.32
31,-0.22,-0.14,-0.46,39.68
31,-0.01,0.65,-0.09,39.68
31,-0.01,1.73,0.40,38.30
31,0.17,1.73,0.40,36.46
31,0.05,2.05,0.44,36.46
31,0.01,0.61,-0.21,36.80
31,-0.12,0.61,-0.25,37.93
31,-0.14,-0.21,-0.44,37.93
31,0.05,0.78,0.03,38.04
31,0.05,0.78,0.48,37.34
31,0.11,1.81,0.48,37.34
31,0.03,1.96,0.42,39.73
31,0.03,1.99,-0.27,39.09
31,-0.10,0.49,-0.27,38.86
31,-0.16,-0.06,-0.40,39.65
31,-0.16,-0.12,0.04,39.78
31,-0.00,0.88,0.04,39.15
31,0.03,1.92,0.45,36.80
31,0.03,1.79,0.28,38.22
31,0.01,1.79,0.28,38.41
31,-0.14,0.38,-0.33,38.41
31,-0.16,0.05,-0.36,36.94
31,-0.10,0.05,-0.36,38.48
31,0.06,0.97,0.14,38.48
31,0.06,1.94,0.53,40.89
31,0.18,1.94,0.54,39.09
31,-0.02,1.57,0.23,39.09
31,-0.10,0.28,-0.39,35.07
31,-0.10,0.28,-0.31,37.88
31,-0.06,0.28,-0.31,37.88
31,-0.04,1.09,0.20,37.33
31,-0.04,1.07,0.50,36.66
31,0.11,2.01,0.50,36.72
31,-0.05,1.36,0.11,39.07
31,-0.05,1.33,-0.44,40.11
31,-0.09,0.14,-0.44,37.24
31,-0.01,0.36,-0.20,37.24
31,-0.01,1.26,0.30,39.45
31,0.09,1.26,0.30,36.55
31,0.10,2.05,0.56,36.55
31,0.10,1.14,0.05,37.41
31,-0.02,1.14,0.06,35.01
31,-0.18,0.08,-0.44,35.01
31,-0.16,0.47,-0.20,36.33
31,-0.03,0.47,0.29,39.76
31,0.15,1.45,0.29,39.76
31,0.05,2.11,0.51,39.83
31,0.05,2.11,-0.05,37.24
31,-0.09,1.01,-0.05,37.19
31,-0.16,0.02,-0.48,37.19
31,-0.16,0.02,-0.10,35.53
31,0.06,0.58,-0.10,35.20
31,0.16,1.58,0.41,38.34
31,0.16,2.09,0.53,40.21
31,0.09,2.09,0.53,38.74
31,-0.10,0.77,-0.13,38.74
31,-0.10,-0.09,-0.47,38.47
31,-0.16,-0.09,-0.45,41.08
31,-0.04,0.69,-0.08,41.08
31,-0.02,1.70,0.41,36.59
31,0.04,1.70,0.42,35.79
31,0.08,2.00,0.42,35.79
31,-0.10,0.58,-0.21,39.27
31,-0.10,0.58,-0.41,36.11
31,-0.13,-0.04,-0.41,36.11
31,0.06,0.80,0.04,37.42
31,0.06,0.75,0.49,37.16
31,0.12,1.75,0.49,36.76
31,0.08,1.91,0.39,37.55
31,0.08,1.94,-0.27,39.40
31,-0.15,0.44,-0.27,39.21
31,-0.13,0.05,-0.41,39.99
31,-0.13,0.97,0.06,37.02
31,0.01,0.97,0.06,37.70
31,0.09,1.84,0.47,37.70
31,0.08,1.75,0.28,38.71
31,-0.05,0.27,-0.37,36.29
31,-0.14,0.27,-0.37,37.98
31,-0.06,0.19,-0.35,37.98
31,0.07,1.02,0.18,38.86
31,0.07,1.94,0.53,38.64
31,0.12,1.94,0.53,39.87
31,-0.02,1.53,0.22,39.25
31,-0.17,0.14,-0.39,40.03
31,-0.17,0.14,-0.31,38.77
31,-0.10,0.26,0.17,37.54
31,0.02,1.16,0.17,37.54
31,0.11,2.03,0.50,35.99
31,-0.05,1.39,0.11,39.22
31,-0.05,1.39,-0.44,37.25
31,-0.14,0.02,-0.44,37.25
31,0.00,0.36,-0.21,38.81
31,0.18,1.35,0.30,38.95
31,0.18,1.35,0.57,39.23
31,0.10,2.10,0.62,40.24
31,-0.04,1.16,0.06,40.24
31,-0.05,-0.04,-0.47,39.22
31,-0.11,0.50,-0.18,37.18
31,-0.07,0.50,-0.17,36.51
31,0.15,1.45,0.27,36.51
31,0.05,2.15,0.51,40.56
31,0.05,0.97,-0.07,35.83
31,-0.09,0.97,-0.07,37.08
31,-0.10,0.08,-0.47,37.33
31,0.03,0.59,-0.08,35.76
31,0.03,1.54,0.39,37.66
31,0.10,1.53,0.51,37.82
31,0.11,2.09,0.51,38.31
31,-0.12,0.76,-0.13,39.87
31,-0.20,-0.07,-0.46,38.86
31,-0.20,-0.12,-0.09,37.05
31,-0.00,0.70,-0.09,37.50
31,0.07,1.77,0.39,38.28
31,0.05,2.05,0.44,37.44
31,0.05,2.05,-0.24,38.20
31,-0.12,0.55,-0.19,36.94
31,-0.12,-0.16,-0.44,36.94
31,0.05,0.81,0.05,37.63
31,0.01,1.81,0.49,37.30
31,0.14,1.81,0.46,37.95
31,0.05,1.93,0.40,37.95
31,-0.10,0.44,-0.28,38.13
31,-0.11,-0.03,-0.41,37.95
31,-0.17,-0.03,-0.38,38.13
31,0.02,0.92,0.05,38.13
31,0.02,1.90,0.46,38.82
31,0.08,1.90,0.27,37.73
31,-0.01,1.77,0.27,37.73
31,-0.14,0.35,-0.35,39.56
31,-0.14,0.35,-0.35,38.56
31,-0.09,0.06,-0.35,38.56
31,0.06,1.00,0.17,36.68
31,0.06,1.02,0.54,38.53
31,0.12,1.95,0.54,39.01
32,-0.06,1.30,-0.44,39.41
32,-0.10,0.12,-0.44,39.41
32,-0.01,0.37,-0.20,38.33
32,-0.01,0.32,0.31,39.18
32,0.16,1.32,0.31,39.39
32,0.13,2.05,0.56,39.39
32,0.13,2.03,0.03,39.63
32,-0.01,1.10,0.03,38.90
32,-0.19,0.03,-0.45,38.90
32,-0.19,0.48,-0.20,39.86
32,-0.01,0.48,-0.20,39.97
32,0.17,1.47,0.32,39.97
32,0.17,2.10,0.50,39.45
32,0.04,2.10,0.55,38.85
32,-0.11,0.96,-0.08,38.85
32,-0.09,-0.04,-0.49,39.21
32,-0.16,-0.04,-0.09,36.23
32,0.06,0.61,-0.09,36.23
32,0.14,1.62,0.43,39.59
32,0.14,1.62,0.52,35.92
32,0.08,2.11,0.52,35.61
32,-0.09,0.73,-0.16,41.09
32,-0.09,0.72,-0.47,38.38
32,-0.17,-0.15,-0.47,38.44
32,-0.04,0.70,-0.08,38.44
32,-0.04,1.75,0.40,37.01
32,0.06,1.75,0.40,36.62
32,0.06,2.02,0.42,36.62
32,0.06,0.57,-0.23,39.55
32,-0.11,0.57,-0.23,38.03
32,-0.14,-0.14,-0.42,38.03
32,-0.13,0.82,0.05,41.35
32,0.06,0.82,0.06,37.78
32,0.16,1.75,0.50,37.78
32,0.08,1.91,0.38,37.75
32,0.08,1.91,-0.28,38.01
32,-0.12,0.47,-0.28,38.01
32,-0.13,-0.06,-0.41,37.11
32,-0.13,-0.07,0.07,38.49
32,0.01,0.99,0.07,38.75
32,0.06,1.93,0.48,38.75
32,0.06,1.93,0.26,38.54
32,-0.03,1.74,0.26,38.63
32,-0.10,0.31,-0.38,40.98
32,-0.10,0.13,-0.33,39.86
32,-0.07,0.13,-0.33,38.66
32,0.04,1.01,0.19,38.66
32,0.06,1.96,0.53,40.90
32,0.12,1.96,0.51,38.87
32,-0.04,1.51,0.19,38.87
32,-0.01,0.22,-0.41,39.72
32,-0.14,0.22,-0.43,37.09
32,-0.07,0.31,-0.30,37.09
32,-0.04,1.10,0.20,37.05
32,-0.04,1.10,0.51,38.24
32,0.09,2.01,0.51,38.24
32,-0.06,1.32,0.11,38.64
32,-0.06,1.37,-0.45,38.26
32,-0.11,0.12,-0.45,38.20
32,0.04,0.41,-0.18,38.20
32,0.04,0.43,0.32,40.00
32,0.15,1.31,0.32,37.97
32,0.10,2.07,0.57,37.97
32,0.10,1.08,0.02,37.33
32,-0.05,1.08,0.02,38.64
32,-0.18,-0.04,-0.47,38.64
32,-0.18,0.51,-0.17,39.33
32,-0.05,0.51,-0.16,37.60
32,0.15,1.47,0.27,37.60
32,0.17,2.09,0.49,37.01
32,0.05,2.09,-0.09,35.39
32,-0.09,0.92,-0.09,35.39
32,-0.19,-0.06,-0.47,39.97
32,-0.19,-0.06,-0.07,37.33
32,0.04,0.59,-0.07,37.33
32,0.13,1.59,0.41,36.67
32,0.13,1.58,0.49,41.48
32,0.11,2.08,0.49,41.66
32,-0.12,0.76,-0.14,40.88
32,-0.12,-0.16,-0.47,38.26
32,-0.18,-0.16,-0.47,39.08
32,-0.02,0.74,-0.07,39.08
32,-0.02,1.80,0.39,37.71
32,0.05,1.80,0.42,38.53
32,0.03,2.04,0.42,38.53
32,0.03,0.53,-0.25,37.06
32,-0.10,0.53,-0.23,36.09
32,-0.10,-0.18,-0.42,36.09
32,0.04,0.82,0.07,38.53
32,0.04,0.82,0.51,38.94
32,0.15,1.81,0.51,38.94
32,0.05,1.86,0.36,40.62
32,0.05,1.86,-0.30,39.77
32,-0.10,0.42,-0.30,39.28
32,-0.17,0.00,-0.40,39.28
32,-0.17,0.03,0.06,38.86
32,0.04,0.96,0.06,39.84
32,0.10,1.91,0.48,39.84
32,0.10,1.72,0.26,39.39
32,-0.03,1.72,0.26,38.08
32,-0.13,0.32,-0.37,38.08
32,-0.16,0.14,-0.33,37.36
32,-0.10,0.14,-0.37,38.71
32,0.07,1.05,0.20,38.71
32,0.11,1.97,0.54,38.79
32,0.11,1.97,0.20,37.67
32,-0.06,1.49,0.20,37.67
32,-0.10,0.18,-0.43,39.86
32,-0.10,0.18,-0.28,41.79
32,-0.05,0.35,-0.28,41.79
32,-0.03,1.17,0.17,39.93
32,-0.03,1.14,0.47,38.57
32,0.06,2.02,0.47,38.41
32,-0.06,1.27,0.07,39.98
32,-0.06,0.05,-0.45,41.05
32,-0.10,0.05,-0.45,38.12
32,-0.01,0.37,-0.18,38.12
32,-0.01,1.35,0.32,38.56
32,0.18,1.35,0.32,38.42
32,0.13,1.96,0.55,38.42
32,0.16,1.12,0.03,39.76
32,-0.03,1.12,0.05,39.70
32,-0.12,0.01,-0.45,39.70
32,-0.02,0.50,-0.18,36.66
32,-0.02,0.50,0.32,37.87
32,0.13,1.53,0.32,37.87
32,0.06,2.11,0.51,40.23
32,0.06,2.11,-0.08,39.30
32,-0.11,0.95,-0.08,39.56
32,-0.10,-0.04,-0.48,41.91
32,-0.10,-0.04,-0.08,39.31
32,0.04,0.65,-0.08,39.52
32,0.08,1.60,0.42,38.73
32,0.08,2.04,0.49,38.81
32,0.06,2.04,0.49,39.17
1,0.09,1.19,0.20,37.71
1,-0.07,0.69,-0.12,39.23
1,-0.07,0.89,-0.05,38.42
1,-0.05,0.89,-0.05,40.89
1,0.01,1.51,0.20,41.12
1,-0.07,1.01,0.01,41.90
1,-0.07,1.02,-0.02,40.48
1,0.02,0.72,0.17,39.76
1,0.10,1.09,0.17,39.66
1,-0.02,0.90,-0.04,38.88
1,-0.02,0.88,-0.09,38.93
1,-0.08,0.82,-0.09,38.48
1,-0.01,1.37,0.16,38.48
1,-0.01,1.31,0.08,38.97
1,-0.05,1.31,0.08,39.23
1,-0.07,0.70,-0.04,39.23
1,-0.10,0.96,0.14,41.44
1,0.09,0.96,0.18,38.63
1,0.06,1.05,0.05,38.63
1,0.06,0.68,-0.13,39.04
1,-0.07,0.68,-0.13,38.64
1,0.01,1.17,0.12,38.64
1,0.00,1.55,0.16,39.81
1,0.00,1.55,-0.09,39.26
1,-0.07,0.66,-0.09,39.26
1,0.06,0.83,0.09,40.79
1,0.06,0.86,0.11,38.64
1,0.07,1.23,0.11,38.32
1,-0.06,0.59,-0.18,41.45
1,-0.06,1.14,0.09,39.68
1,-0.02,1.14,0.09,39.26
1,0.02,1.71,0.28,39.26
1,0.02,0.68,-0.12,38.92
1,-0.07,0.68,-0.12,40.42
1,0.06,0.79,0.06,40.42
1,0.02,1.35,0.17,37.57
1,0.08,1.35,0.18,38.26
1,-0.06,0.55,-0.20,38.26
1,-0.04,1.06,0.04,39.56
1,-0.04,1.06,0.30,38.11
1,0.02,1.76,0.30,38.11
1,-0.05,0.67,-0.09,39.96
1,-0.05,0.67,0.02,39.07
1,0.05,0.73,0.02,38.91
1,0.11,1.29,0.23,38.13
1,0.11,1.26,-0.16,39.59
1,-0.05,0.57,-0.16,39.88
1,-0.01,0.93,-0.02,38.31
1,-0.01,1.64,0.25,38.34
1,0.03,1.64,0.25,40.42
1,-0.07,0.80,-0.06,40.42
1,-0.07,0.69,-0.00,41.39
1,0.05,0.69,-0.05,39.98
1,0.09,1.17,0.20,39.98
1,0.12,0.73,-0.09,38.40
1,-0.06,0.73,-0.09,39.43
1,-0.05,0.89,-0.03,39.43
1,0.01,1.49,0.20,41.29
1,0.01,1.49,0.01,36.45
1,-0.08,1.04,0.01,36.45
1,0.02,0.71,-0.02,40.30
1,0.02,0.72,0.17,36.83
1,0.11,1.10,0.17,37.32
1,-0.02,0.94,-0.03,36.54
1,-0.02,0.99,-0.08,38.09
1,-0.08,0.81,-0.08,37.61
1,-0.02,1.34,0.15,38.40
1,-0.02,1.29,0.09,40.08
1,-0.04,1.29,0.09,40.92
1,-0.07,0.68,-0.06,40.92
1,-0.09,0.96,0.15,37.11
1,0.10,0.96,0.15,38.81
1,0.06,1.10,0.09,38.81
1,0.04,0.66,-0.13,38.97
1,-0.08,0.66,-0.14,37.95
1,0.00,1.14,0.11,37.95
1,0.01,1.53,0.15,39.02
1,0.01,1.53,-0.09,40.44
1,-0.06,0.66,-0.09,40.44
1,0.06,0.85,0.11,39.97
1,0.06,0.85,0.14,40.37
1,0.08,1.28,0.14,40.65
1,-0.07,0.58,-0.17,39.87
1,-0.07,1.10,0.07,37.74
1,-0.02,1.10,0.07,38.05
1,0.02,1.71,0.27,38.05
1,0.02,0.67,-0.12,38.54
1,-0.06,0.67,-0.12,38.55
1,0.05,0.81,0.06,38.55
1,0.04,1.39,0.19,39.71
1,0.10,1.39,0.18,40.11
1,-0.04,0.53,-0.20,40.11
1,-0.03,1.02,0.02,40.55
1,-0.03,1.02,0.29,41.00
1,0.03,1.73,0.29,41.00
1,-0.04,0.70,-0.09,37.76
1,-0.04,0.70,0.02,39.28
1,0.05,0.76,0.02,39.55
1,0.11,1.26,0.21,37.99
1,0.11,1.25,-0.15,38.55
1,-0.04,0.56,-0.15,38.40
1,-0.01,0.89,-0.02,39.18
1,-0.01,1.62,0.25,38.96
1,0.03,1.62,0.25,39.63
1,-0.06,0.84,-0.05,39.63
1,-0.01,0.69,-0.01,39.14
1,0.05,0.69,-0.01,38.75
1,0.10,1.16,0.18,38.75
1,0.12,0.71,-0.10,39.20
1,-0.06,0.71,-0.09,38.50
1,-0.06,0.88,-0.03,38.50
1,0.02,1.51,0.20,40.36
1,0.02,1.51,0.03,40.89
1,-0.08,1.09,0.03,40.89
1,0.01,0.69,-0.03,38.92
1,0.01,0.73,0.15,40.12
1,0.10,1.04,0.15,40.13
1,-0.03,0.94,-0.04,39.35
1,-0.03,0.89,-0.08,39.73
1,-0.10,0.83,-0.08,39.22
1,-0.01,1.34,0.15,39.22
1,-0.01,1.34,0.10,37.97
1,-0.02,1.34,0.10,38.62
1,-0.05,0.65,-0.06,38.62
1,-0.03,0.91,0.13,38.12
1,0.09,0.91,0.14,39.17
1,0.06,1.12,0.08,39.17
1,0.06,0.67,-0.14,39.35
1,-0.07,0.67,0.11,38.77
1,0.01,1.14,0.11,38.77
1,0.04,1.54,0.15,39.21
1,0.04,1.54,-0.11,39.13
1,-0.05,0.65,-0.11,39.13
1,0.06,0.83,0.09,40.11
1,0.06,0.85,0.15,37.82
1,0.09,1.29,0.15,38.22
1,-0.06,0.60,-0.18,39.78
1,-0.06,1.08,0.05,39.48
1,-0.03,1.08,0.05,38.97
1,0.03,1.70,0.26,38.97
1,0.03,0.68,-0.12,38.88
1,-0.06,0.68,-0.06,38.51
1,0.05,0.81,0.06,38.51
1,0.04,1.40,0.19,38.52
1,0.10,1.40,0.20,39.83
1,-0.03,0.53,-0.18,39.83
1,-0.03,1.01,-0.00,42.24
1,-0.03,1.01,0.29,38.66
1,0.02,1.72,0.29,38.66
1,-0.06,0.67,-0.09,39.51
1,-0.06,0.67,0.03,39.80
1,0.05,0.76,0.03,39.14
1,0.12,1.29,0.23,39.14
1,0.12,1.31,-0.14,38.82
1,-0.05,0.56,-0.14,39.06
1,-0.01,0.88,-0.03,36.71
1,-0.01,1.59,0.23,37.78
1,0.03,1.59,0.23,39.40
1,-0.07,0.84,-0.05,39.40
1,-0.07,0.70,-0.01,37.97
1,0.05,0.70,-0.06,37.50
1,0.10,1.18,0.19,37.50
1,0.08,0.74,-0.09,38.77
1,-0.05,0.74,-0.10,38.28
1,-0.06,0.86,-0.04,38.28
1,0.02,1.46,0.19,38.36
1,0.02,1.46,0.05,37.51
1,-0.08,1.12,0.05,37.51
1,-0.02,0.69,-0.04,39.93
1,-0.02,0.70,0.16,38.08
1,0.11,1.08,0.16,37.99
1,-0.01,0.95,-0.05,38.77
1,-0.01,0.97,-0.09,40.42
1,-0.08,0.78,-0.09,39.01
1,-0.01,1.34,0.15,39.01
1,-0.01,1.36,0.11,40.05
1,-0.01,1.36,0.11,40.21
1,-0.07,0.64,-0.07,40.21
1,-0.09,0.90,0.13,40.30
1,0.10,0.90,0.13,38.63
1,0.06,1.11,0.07,38.63
1,0.06,0.66,-0.14,39.76
1,-0.07,0.66,0.10,41.38
1,0.01,1.14,0.10,41.38
1,0.03,1.58,0.17,37.14
1,0.03,1.58,-0.10,36.22
1,-0.04,0.64,-0.10,36.22
1,0.06,0.81,0.08,38.97
1,0.06,0.79,0.15,38.41
1,0.08,1.29,0.15,38.88
1,-0.06,0.58,-0.18,38.88
1,-0.06,1.11,0.06,40.14
1,-0.01,1.11,0.06,38.08
1,0.04,1.73,0.26,38.08
1,0.04,0.64,-0.11,40.60
1,-0.06,0.64,-0.07,39.36
1,0.04,0.80,0.05,39.36
1,0.04,1.40,0.18,38.81
1,0.10,1.40,0.18,41.16
1,-0.04,0.53,-0.19,41.16
1,-0.02,1.02,0.00,38.72
1,-0.02,1.02,0.29,38.68
1,0.03,1.70,0.29,38.68
1,-0.05,0.68,-0.10,39.58
1,-0.05,0.68,0.01,37.97
1,0.05,0.73,0.01,37.88
1,0.12,1.28,0.22,37.88
1,0.12,1.26,-0.14,40.04
1,-0.04,0.57,-0.14,40.28
1,-0.00,0.88,-0.02,38.71
1,-0.00,1.60,0.23,38.86
1,0.03,1.60,0.23,38.98
1,-0.07,0.84,-0.06,38.98
1,-0.07,0.73,-0.01,40.39
1,0.05,0.73,-0.00,40.31
1,0.11,1.17,0.18,40.31
1,0.08,0.73,-0.09,39.95
1,-0.04,0.73,-0.11,38.67
1,-0.05,0.84,-0.05,38.67
1,0.02,1.46,0.19,38.81
1,0.02,1.46,0.05,37.71
1,-0.09,1.12,0.05,37.71
1,-0.01,0.70,-0.03,39.17
1,-0.01,0.74,0.16,39.99
1,0.12,1.05,0.16,40.47
2,0.10,0.91,0.08,39.61
2,0.04,1.10,0.08,39.61
2,0.05,0.66,-0.14,39.73
2,-0.07,0.66,0.11,37.02
2,0.01,1.15,0.11,37.02
2,0.03,1.58,0.16,39.18
2,0.03,1.58,-0.09,39.11
2,-0.04,0.64,-0.09,39.11
2,0.07,0.82,0.08,38.43
2,0.07,0.84,0.16,39.07
2,0.07,1.27,0.16,38.82
2,-0.06,0.60,-0.18,40.39
2,-0.06,1.09,0.05,39.01
2,-0.01,1.09,0.05,38.57
2,0.03,1.72,0.26,38.57
2,0.03,0.65,-0.11,40.11
2,-0.05,0.65,-0.11,40.45
2,0.06,0.80,0.06,40.45
2,0.04,1.38,0.19,39.92
2,0.10,1.38,0.17,39.27
2,-0.05,0.53,-0.20,39.27
2,-0.01,1.02,0.00,39.30
2,-0.01,1.02,0.29,40.74
2,0.04,1.69,0.29,40.74
2,-0.04,0.69,-0.10,38.83
2,-0.04,0.69,0.02,40.50
2,0.06,0.75,0.02,40.59
2,0.11,1.27,0.21,38.24
2,0.11,1.26,-0.14,39.48
2,-0.05,0.57,-0.14,39.67
2,0.00,0.89,-0.02,38.88
2,0.00,1.58,0.23,39.74
2,0.03,1.58,0.23,38.64
2,-0.06,0.87,-0.04,38.64
2,-0.06,0.72,-0.02,38.29
2,0.05,0.72,-0.01,38.64
2,0.09,1.14,0.18,38.64
2,0.09,0.77,-0.08,39.62
2,-0.03,0.77,-0.10,39.22
2,-0.05,0.84,-0.04,39.22
2,0.01,1.45,0.19,40.62
2,0.01,1.45,0.04,37.31
2,-0.08,1.13,0.04,37.31
2,-0.02,0.71,-0.05,38.14
2,-0.02,0.72,0.15,38.02
2,0.11,1.03,0.15,37.71
2,-0.01,0.97,-0.04,40.06
2,-0.01,0.97,-0.09,39.66
2,-0.07,0.79,-0.09,41.32
2,-0.01,1.29,0.16,41.32
2,-0.01,1.37,0.11,40.06
2,-0.02,1.37,0.11,38.58
2,-0.05,0.65,-0.07,38.58
2,-0.01,0.86,0.12,35.94
2,0.11,0.86,0.08,38.39
2,0.06,1.14,0.08,38.39
2,0.01,0.65,-0.14,41.26
2,-0.06,0.65,0.10,37.01
2,0.00,1.14,0.10,37.01
2,0.03,1.59,0.16,40.07
2,0.03,1.59,-0.10,39.37
2,-0.04,0.64,-0.10,39.37
2,0.06,0.82,0.08,39.67
2,0.06,0.87,0.18,39.00
2,0.09,1.30,0.18,39.06
2,-0.05,0.59,-0.20,39.84
2,-0.05,1.08,0.05,38.61
2,-0.03,1.08,0.05,39.81
2,0.02,1.73,0.24,39.81
2,0.02,0.66,-0.12,41.03
2,-0.05,0.66,-0.12,40.79
2,0.05,0.79,0.06,40.79
2,0.04,1.37,0.20,39.71
2,0.10,1.37,0.25,41.32
2,-0.05,0.54,-0.19,41.32
2,-0.02,1.01,-0.00,39.45
2,-0.02,1.01,0.28,38.68
2,0.03,1.68,0.28,38.68
2,-0.03,0.70,-0.10,39.24
2,-0.03,0.70,0.02,39.52
2,0.06,0.74,0.02,39.38
2,0.11,1.28,0.20,38.59
2,0.11,1.28,-0.14,38.40
2,-0.05,0.59,-0.14,38.48
2,-0.00,0.89,-0.03,39.26
2,-0.00,1.57,0.23,38.84
2,0.04,1.57,0.23,38.56
2,-0.07,0.88,-0.05,38.56
2,-0.07,0.73,-0.01,38.99
2,0.03,0.73,-0.01,40.08
2,0.09,1.16,0.17,40.08
2,0.10,0.78,-0.08,37.42
2,-0.03,0.78,-0.11,39.13
2,-0.06,0.83,-0.05,39.13
2,0.02,1.44,0.19,37.54
2,0.02,1.44,0.07,39.48
2,-0.07,1.18,0.07,39.48
2,-0.04,0.73,-0.05,39.23
2,-0.04,0.73,0.14,39.75
2,0.11,1.04,0.14,39.76
2,0.00,0.98,-0.03,38.97
2,0.00,1.00,-0.09,40.31
2,-0.08,0.75,-0.09,40.49
2,-0.00,1.30,0.14,38.14
2,-0.00,1.38,0.15,37.55
2,0.00,1.38,0.15,40.39
2,-0.07,0.66,-0.07,40.39
2,-0.08,0.85,0.12,36.89
2,0.11,0.85,0.07,38.86
2,0.06,1.15,0.07,38.86
2,0.05,0.65,-0.13,39.40
2,-0.07,0.65,-0.14,38.58
2,0.00,1.13,0.11,38.58
2,0.04,1.62,0.18,38.25
2,0.04,1.62,-0.10,41.46
2,-0.05,0.64,-0.10,41.46
2,0.05,0.81,0.09,39.78
2,0.05,0.81,0.18,40.26
2,0.08,1.31,0.18,40.35
2,-0.06,0.62,-0.18,40.35
2,-0.06,0.59,0.05,38.69
2,-0.04,1.09,0.05,39.13
2,0.03,1.75,0.25,39.13
2,0.03,0.64,-0.13,38.37
2,-0.06,0.64,-0.13,38.53
2,0.04,0.79,0.06,38.53
2,0.04,1.39,0.22,40.40
2,0.10,1.39,0.20,41.52
2,-0.06,0.55,-0.17,41.52
2,-0.03,1.01,-0.01,38.59
2,-0.03,1.01,0.28,39.23
2,0.04,1.68,0.28,39.23
2,-0.04,0.70,-0.10,38.48
2,-0.04,0.70,0.01,39.33
2,0.05,0.71,0.01,39.77
2,0.12,1.28,0.21,38.21
2,0.12,1.31,-0.13,41.77
2,-0.05,0.62,-0.13,41.70
2,-0.02,0.87,-0.03,40.91
2,-0.02,1.56,0.21,38.33
2,0.03,1.56,0.21,38.92
2,-0.07,0.87,-0.05,38.92
2,-0.07,0.71,-0.01,38.19
2,0.05,0.71,-0.01,37.43
2,0.10,1.16,0.18,37.43
2,0.09,0.80,-0.06,36.70
2,-0.03,0.80,-0.12,39.83
2,-0.07,0.83,-0.05,39.83
2,0.01,1.44,0.18,39.74
2,0.01,1.44,0.06,40.21
2,-0.09,1.16,0.06,40.21
2,-0.04,0.73,-0.05,40.91
2,-0.04,0.72,0.15,40.62
2,0.10,1.04,0.15,40.53
2,-0.01,0.98,-0.02,37.40
2,-0.01,0.99,-0.10,39.42
2,-0.08,0.74,-0.10,38.63
2,0.01,1.27,0.14,38.63
2,0.01,1.40,0.16,39.05
2,-0.01,1.40,0.16,37.59
2,-0.07,0.67,-0.07,37.59
2,-0.09,0.87,0.11,38.69
2,0.10,0.87,0.07,40.58
2,0.04,1.16,0.07,40.58
2,0.05,0.62,-0.14,39.41
2,-0.07,0.62,0.10,39.52
2,0.01,1.14,0.10,39.52
2,0.03,1.61,0.18,38.25
2,0.03,1.61,-0.10,39.06
2,-0.07,0.65,-0.10,39.06
2,0.06,0.83,0.09,40.24
2,0.06,0.86,0.18,39.29
2,0.08,1.30,0.18,39.59
2,-0.06,0.59,-0.19,38.81
2,-0.06,1.08,0.06,37.71
2,-0.01,1.08,0.06,38.42
2,0.02,1.76,0.25,38.42
2,0.02,0.67,-0.13,39.09
2,-0.07,0.67,-0.13,36.99
2,0.05,0.79,0.05,36.99
2,0.04,1.35,0.21,39.69
2,0.11,1.35,0.20,38.89
2,-0.05,0.54,-0.17,38.89
2,-0.01,0.99,0.00,41.82
2,-0.01,0.99,0.28,40.66
2,0.03,1.71,0.28,40.66
2,-0.05,0.70,-0.09,36.57
2,-0.05,0.70,0.01,38.35
2,0.07,0.71,0.01,39.06
2,0.11,1.25,0.21,39.06
2,0.11,1.22,-0.14,39.80
2,-0.06,0.60,-0.14,39.51
2,-0.03,0.90,-0.03,39.51
2,-0.03,1.57,0.24,38.79
2,0.02,1.57,0.24,41.55
2,-0.08,0.89,-0.04,41.55
2,-0.08,0.69,-0.02,38.39
2,0.05,0.69,-0.02,39.46
2,0.09,1.15,0.17,39.46
2,0.10,0.82,-0.06,38.41
2,-0.03,0.82,-0.11,39.06
2,-0.06,0.86,-0.05,39.06
2,-0.01,1.43,0.20,37.96
2,-0.01,1.43,0.06,40.85
2,-0.09,1.17,0.06,40.85
2,-0.04,0.69,-0.06,38.30
2,-0.04,0.73,0.16,41.36
2,0.10,1.05,0.16,41.28
2,0.00,1.01,-0.01,39.72
2,0.00,1.06,-0.10,38.79
2,-0.07,0.75,-0.10,39.38
2,0.01,1.26,0.14,39.38
2,0.01,1.39,0.14,38.39
2,-0.01,1.39,0.14,40.32
2,-0.06,0.66,-0.08,40.32
2,-0.09,0.88,0.12,39.50
2,0.09,0.88,0.08,38.08
2,0.04,1.21,0.08,38.08
2,0.06,0.61,-0.15,39.75
2,-0.06,0.61,0.09,41.06
2,-0.00,1.11,0.09,41.06
2,0.03,1.60,0.20,37.53
2,0.03,1.60,-0.09,39.20
2,-0.06,0.67,-0.09,39.20
2,0.06,0.83,0.10,40.04
2,0.06,0.84,0.20,38.89
2,0.08,1.34,0.20,38.66
2,-0.06,0.57,-0.19,39.44
2,-0.06,1.09,0.05,40.32
2,-0.03,1.09,0.05,41.07
2,0.02,1.76,0.24,41.07
2,0.02,0.67,-0.12,40.13
2,-0.06,0.67,-0.12,40.92
2,0.04,0.81,0.05,40.92
3,0.06,0.72,0.01,37.72
3,0.10,1.24,0.20,39.51
3,0.10,1.23,-0.12,39.84
3,-0.06,0.60,-0.12,39.77
3,-0.03,0.90,-0.02,38.98
3,-0.03,1.59,0.25,39.35
3,0.01,1.59,0.25,39.46
3,-0.08,0.92,-0.03,39.46
3,-0.08,0.70,-0.01,41.03
3,0.04,0.70,-0.01,38.80
3,0.10,1.12,0.17,38.80
3,0.10,0.81,-0.05,39.96
3,-0.02,0.81,-0.06,39.55
3,-0.06,0.87,-0.06,39.55
3,-0.01,1.43,0.19,38.60
3,-0.01,1.43,0.06,38.41
3,-0.10,1.21,0.06,38.41
3,-0.05,0.69,-0.06,38.82
3,-0.05,0.71,0.13,41.89
3,0.09,1.02,0.13,42.01
3,0.02,1.02,-0.00,40.44
3,0.02,1.02,-0.09,40.20
3,-0.07,0.77,-0.09,40.17
3,-0.00,1.26,0.13,38.60
3,-0.00,1.40,0.15,38.66
3,-0.01,1.40,0.15,38.56
3,-0.07,0.64,-0.08,38.56
3,-0.09,0.86,0.11,38.51
3,0.09,0.86,0.07,38.04
3,0.04,1.21,0.07,38.04
3,0.06,0.64,-0.15,39.04
3,-0.07,0.64,-0.16,41.33
3,-0.00,1.13,0.09,41.33
3,0.04,1.59,0.19,38.25
3,0.04,1.59,-0.10,38.17
3,-0.05,0.64,-0.10,38.17
3,0.05,0.83,0.10,39.44
3,0.05,0.81,0.20,38.98
3,0.08,1.38,0.20,38.33
3,-0.07,0.60,-0.18,39.12
3,-0.07,1.06,0.04,38.90
3,-0.04,1.06,0.04,38.78
3,0.04,1.74,0.23,38.78
3,0.04,0.67,-0.14,39.03
3,-0.05,0.67,-0.14,38.34
3,0.05,0.83,0.06,38.34
3,0.03,1.38,0.25,38.28
3,0.09,1.38,0.28,37.93
3,-0.06,0.53,-0.16,37.93
3,-0.08,0.98,-0.01,39.03
3,-0.02,0.98,0.27,38.56
3,0.03,1.67,0.27,38.56
3,-0.05,0.75,-0.09,37.21
3,-0.05,0.75,0.02,39.71
3,0.05,0.74,0.02,39.49
3,0.11,1.24,0.20,40.27
3,0.11,1.22,-0.14,37.83
3,-0.06,0.60,-0.14,38.30
3,-0.03,0.86,-0.03,37.52
3,-0.03,1.54,0.22,38.93
3,0.02,1.54,0.22,41.20
3,-0.07,0.94,-0.01,41.20
3,-0.07,0.73,-0.01,38.55
3,0.03,0.73,-0.04,40.27
3,0.09,1.11,0.15,40.27
3,0.09,0.82,-0.05,40.39
3,-0.03,0.82,-0.01,39.03
3,-0.07,0.84,-0.07,39.03
3,-0.01,1.45,0.19,39.77
3,-0.01,1.45,0.07,39.06
3,-0.08,1.22,0.07,39.06
3,-0.05,0.71,-0.05,40.03
3,-0.05,0.69,0.13,39.71
3,0.09,1.00,0.13,39.65
3,0.01,0.97,-0.00,39.65
3,0.01,0.95,-0.10,40.19
3,-0.08,0.76,-0.10,39.98
3,0.00,1.25,0.13,39.98
3,0.00,1.43,0.18,39.71
3,-0.00,1.43,0.18,39.74
3,-0.07,0.63,-0.09,39.74
3,-0.10,0.83,0.09,40.62
3,0.08,0.83,0.07,39.45
3,0.04,1.21,0.07,39.45
3,0.00,0.63,-0.14,40.45
3,-0.06,0.63,-0.16,40.76
3,0.00,1.13,0.09,40.76
3,0.04,1.64,0.21,40.94
3,0.04,1.64,-0.12,39.80
3,-0.05,0.62,-0.12,39.80
3,0.05,0.81,0.08,38.26
3,0.05,0.84,0.20,41.25
3,0.08,1.34,0.20,41.05
3,-0.06,0.60,-0.18,39.48
3,-0.06,0.57,0.05,38.44
3,-0.03,1.07,0.05,38.04
3,0.03,1.75,0.24,38.04
3,0.03,0.66,-0.13,38.37
3,-0.06,0.66,-0.13,40.20
3,0.04,0.79,0.06,40.20
3,0.04,1.37,0.24,38.05
3,0.10,1.37,0.22,37.19
3,-0.05,0.55,-0.16,37.19
3,-0.02,0.96,-0.01,38.68
3,-0.02,0.96,0.26,40.75
3,0.04,1.67,0.26,40.75
3,-0.04,0.72,-0.09,37.89
3,-0.04,0.72,0.01,39.74
3,0.06,0.72,0.01,39.65
3,0.11,1.28,0.20,39.65
3,0.11,1.31,-0.13,39.99
3,-0.07,0.62,-0.13,40.21
3,-0.04,0.87,-0.03,38.64
3,-0.04,1.53,0.23,40.01
3,0.03,1.53,0.23,39.22
3,-0.08,0.93,-0.02,39.22
3,-0.08,0.71,0.00,39.79
3,0.03,0.71,0.03,39.06
3,0.10,1.14,0.16,39.06
3,0.10,0.83,-0.06,37.35
3,-0.03,0.83,-0.01,37.91
3,-0.07,0.82,-0.07,37.91
3,0.01,1.40,0.17,37.24
3,0.01,1.40,0.07,38.15
3,-0.07,1.23,0.07,38.15
3,-0.06,0.69,-0.05,41.39
3,-0.06,0.70,0.14,39.02
3,0.10,1.02,0.14,38.71
3,0.04,1.01,-0.00,37.15
3,0.04,1.03,-0.12,39.63
3,-0.07,0.72,-0.12,39.60
3,0.01,1.25,0.12,39.60
3,0.01,1.45,0.17,40.79
3,-0.01,1.45,0.17,39.97
3,-0.07,0.65,-0.09,39.97
3,-0.10,0.82,0.10,37.15
3,0.09,0.82,0.07,36.03
3,0.05,1.18,0.07,36.03
3,0.01,0.58,-0.15,38.55
3,-0.06,0.58,-0.15,38.79
3,0.00,1.14,0.10,38.79
3,0.04,1.65,0.23,37.94
3,0.04,1.65,-0.12,39.25
3,-0.06,0.63,-0.12,39.25
3,0.07,0.80,0.07,39.20
3,0.07,0.79,0.18,39.97
3,0.08,1.35,0.18,40.46
3,-0.07,0.57,-0.18,41.24
3,-0.07,0.58,0.06,38.65
3,-0.03,1.08,0.06,38.60
3,0.03,1.78,0.25,38.60
3,0.03,0.62,-0.14,40.13
3,-0.06,0.62,-0.14,40.85
3,0.05,0.79,0.04,40.85
3,0.04,1.33,0.23,39.67
3,0.10,1.33,0.21,38.37
3,-0.06,0.54,-0.17,38.37
3,-0.07,0.99,0.00,40.14
3,-0.00,0.99,0.26,39.32
3,0.04,1.67,0.26,39.32
3,-0.05,0.72,-0.09,40.08
3,-0.05,0.72,0.01,38.05
3,0.05,0.71,0.01,38.05
3,0.10,1.24,0.19,37.58
3,0.10,1.22,-0.12,36.62
3,-0.05,0.66,-0.12,36.05
3,-0.02,0.87,-0.02,40.75
3,-0.02,1.54,0.22,39.79
3,0.02,1.54,0.22,39.07
3,-0.08,0.92,-0.01,39.07
3,-0.08,0.70,-0.01,39.16
3,0.02,0.70,-0.01,38.96
3,0.10,1.15,0.16,38.96
3,0.12,0.85,-0.04,41.14
3,-0.01,0.85,-0.01,40.05
3,-0.07,0.83,-0.07,40.05
3,0.00,1.38,0.17,38.90
3,0.00,1.38,0.07,39.23
3,-0.08,1.20,0.07,39.23
3,-0.06,0.69,-0.06,38.63
3,-0.06,0.71,0.15,40.07
3,0.10,1.02,0.15,40.65
3,0.05,1.01,0.02,38.30
3,0.05,1.03,-0.13,39.46
3,-0.07,0.72,-0.13,39.60
3,0.00,1.22,0.11,38.03
3,0.00,1.44,0.17,38.32
3,-0.01,1.44,0.17,39.98
3,-0.05,0.64,-0.09,39.98
3,-0.04,0.87,0.11,38.46
3,0.08,0.87,0.08,38.03
3,0.05,1.22,0.08,38.03
3,0.00,0.59,-0.15,38.41
3,-0.06,0.59,0.08,38.21
3,0.00,1.11,0.08,38.21
3,0.04,1.61,0.23,39.41
3,0.04,1.61,-0.11,40.20
3,-0.04,0.63,-0.11,40.20
3,0.06,0.83,0.09,38.38
3,0.06,0.85,0.20,39.47
3,0.09,1.35,0.20,39.42
3,-0.06,0.57,-0.18,38.64
3,-0.06,1.05,0.04,38.40
3,-0.03,1.05,0.04,38.00
3,0.03,1.74,0.24,38.00
3,0.03,0.65,-0.13,39.45
3,-0.05,0.65,-0.13,37.64
3,0.05,0.79,0.05,37.64
3,0.04,1.34,0.24,39.20
3,0.10,1.34,0.20,38.51
3,-0.06,0.52,-0.17,38.51
3,-0.02,0.96,-0.00,39.95
3,-0.02,0.96,0.27,39.11
3,0.04,1.65,0.27,39.11
3,-0.04,0.73,-0.08,38.83
3,-0.04,0.73,0.00,39.13
3,0.07,0.71,0.00,39.61
3,0.12,1.22,0.18,39.61
3,0.12,1.19,-0.13,40.34
3,-0.05,0.63,-0.13,40.31
3,-0.04,0.87,-0.04,37.96
3,-0.04,1.53,0.23,38.92
3,0.02,1.53,0.23,39.25
3,-0.07,0.96,-0.01,39.25
3,-0.07,0.71,-0.01,38.87
3,0.04,0.71,-0.04,39.76
3,0.10,1.10,0.15,39.76
3,0.10,0.86,-0.05,40.07
3,-0.02,0.86,-0.03,39.67
3,-0.07,0.81,-0.09,39.67
3,-0.00,1.42,0.17,40.08
3,-0.00,1.42,0.06,39.71
3,-0.06,1.23,0.06,39.71
3,-0.05,0.68,-0.05,39.81
4,-0.05,0.65,-0.09,38.74
4,-0.04,0.83,0.10,38.05
4,0.09,0.83,0.08,40.33
4,0.07,1.24,0.08,40.33
4,0.08,0.59,-0.15,38.47
4,-0.04,0.59,-0.17,38.85
4,-0.02,1.09,0.08,38.85
4,0.02,1.65,0.22,39.70
4,0.02,1.65,-0.12,39.01
4,-0.05,0.64,-0.12,39.01
4,0.07,0.81,0.08,39.74
4,0.07,0.76,0.20,39.00
4,0.09,1.38,0.20,38.85
4,-0.05,0.56,-0.18,38.07
4,-0.05,0.54,0.05,39.46
4,-0.03,1.04,0.05,38.47
4,0.02,1.74,0.24,38.47
4,0.02,0.64,-0.13,37.90
4,-0.05,0.64,-0.13,36.61
4,0.04,0.78,0.05,36.61
4,0.05,1.35,0.24,40.96
4,0.11,1.35,0.21,40.60
4,-0.05,0.57,-0.17,40.60
4,-0.02,0.94,-0.01,40.86
4,-0.02,0.94,0.24,40.50
4,0.04,1.63,0.24,40.50
4,-0.04,0.76,-0.08,40.39
4,-0.04,0.76,0.00,39.79
4,0.07,0.69,0.00,39.79
4,0.11,1.25,0.19,37.27
4,0.11,1.27,-0.12,37.52
4,-0.06,0.64,-0.12,37.29
4,-0.05,0.86,-0.04,37.29
4,-0.05,1.51,0.21,39.61
4,0.02,1.51,0.21,39.70
4,-0.05,0.97,-0.00,39.70
4,-0.05,0.70,0.00,38.96
4,0.04,0.70,0.04,39.67
4,0.10,1.13,0.16,39.67
4,0.12,0.87,-0.05,39.20
4,-0.01,0.87,-0.03,38.17
4,-0.07,0.82,-0.09,38.17
4,0.01,1.39,0.16,38.14
4,0.01,1.39,0.07,38.86
4,-0.06,1.25,0.07,38.86
4,-0.06,0.68,-0.05,38.56
4,-0.06,0.68,0.12,39.73
4,0.10,1.00,0.12,39.58
4,0.05,1.03,0.02,40.36
4,0.05,1.01,-0.13,39.19
4,-0.07,0.70,-0.13,39.31
4,0.02,1.20,0.11,40.10
4,0.02,1.50,0.18,39.87
4,0.00,1.50,0.18,36.96
4,-0.05,0.65,-0.09,36.96
4,-0.04,0.84,0.09,39.31
4,0.08,0.84,0.08,39.51
4,0.06,1.24,0.08,39.51
4,0.00,0.57,-0.16,41.23
4,-0.06,0.57,-0.17,40.95
4,0.01,1.10,0.08,40.95
4,0.04,1.67,0.24,40.15
4,0.04,1.67,-0.11,40.03
4,-0.05,0.66,-0.11,40.03
4,0.06,0.78,0.07,39.02
4,0.06,0.75,0.18,39.99
4,0.09,1.38,0.18,40.08
4,-0.05,0.54,-0.17,39.30
4,-0.05,0.56,0.05,40.66
4,-0.02,1.06,0.05,39.61
4,0.03,1.76,0.25,39.61
4,0.03,0.65,-0.13,39.77
4,-0.05,0.65,-0.13,37.98
4,0.04,0.77,0.04,37.98
4,0.05,1.33,0.23,37.00
4,0.11,1.33,0.20,39.01
4,-0.06,0.54,-0.18,39.01
4,-0.00,0.95,0.00,38.56
4,-0.00,0.95,0.25,39.88
4,0.04,1.63,0.25,39.88
4,-0.06,0.76,-0.08,39.16
4,-0.06,0.76,0.01,39.33
4,0.05,0.69,0.01,39.33
4,0.11,1.22,0.19,39.47
4,0.11,1.22,-0.11,40.12
4,-0.05,0.66,-0.11,40.53
4,-0.04,0.87,-0.04,38.18
4,-0.04,1.52,0.21,39.78
4,0.01,1.52,0.21,39.21
4,-0.08,0.97,-0.00,39.21
4,-0.08,0.69,-0.00,38.29
4,0.02,0.69,-0.00,38.98
4,0.11,1.13,0.17,38.98
4,0.12,0.89,-0.03,38.53
4,-0.01,0.89,-0.02,40.96
4,-0.08,0.82,-0.09,40.96
4,0.00,1.39,0.15,39.59
4,0.00,1.39,0.06,41.20
4,-0.07,1.23,0.06,41.20
4,-0.06,0.68,-0.06,38.82
4,-0.06,0.68,0.14,39.62
4,0.10,0.99,0.14,39.31
4,0.05,1.05,0.03,41.66
4,0.05,1.03,-0.12,39.07
4,-0.06,0.72,-0.12,38.62
4,0.04,1.19,0.10,38.62
4,0.04,1.48,0.15,38.16
4,0.00,1.48,0.15,38.92
4,-0.06,0.63,-0.10,38.92
4,-0.04,0.85,0.09,39.29
4,0.08,0.85,0.09,39.79
4,0.06,1.25,0.09,39.79
4,0.01,0.59,-0.17,40.85
4,-0.05,0.59,-0.18,39.65
4,0.02,1.11,0.07,39.65
4,0.03,1.65,0.25,38.25
4,0.03,1.65,-0.11,39.49
4,-0.05,0.64,-0.11,39.49
4,0.05,0.84,0.07,38.88
4,0.05,0.86,0.19,40.82
4,0.08,1.36,0.19,41.18
4,-0.05,0.56,-0.18,41.18
4,-0.05,0.54,0.04,40.11
4,-0.02,1.04,0.04,40.58
4,0.02,1.75,0.27,40.58
4,0.02,0.66,-0.11,38.73
4,-0.05,0.66,-0.11,37.92
4,0.05,0.79,0.03,37.92
4,0.04,1.32,0.23,40.28
4,0.10,1.32,0.21,38.17
4,-0.05,0.54,-0.17,38.17
4,0.00,0.94,-0.00,38.25
4,0.00,0.94,0.27,40.32
4,0.02,1.65,0.27,40.32
4,-0.06,0.76,-0.07,39.81
4,-0.06,0.76,0.00,40.29
4,0.06,0.72,0.00,40.29
4,0.10,1.20,0.18,39.15
4,0.10,1.21,-0.12,38.91
4,-0.07,0.64,-0.12,38.54
4,-0.03,0.89,-0.02,39.32
4,-0.03,1.53,0.21,39.01
4,0.00,1.53,0.21,38.79
4,-0.08,1.00,-0.00,38.79
4,-0.08,0.70,-0.01,38.10
4,0.02,0.70,-0.04,38.62
4,0.10,1.08,0.15,38.62
4,0.10,0.89,-0.04,41.13
4,-0.02,0.89,-0.01,39.46
4,-0.07,0.84,-0.08,39.46
4,-0.03,1.41,0.16,40.57
4,-0.03,1.41,0.06,40.21
4,-0.07,1.27,0.06,40.21
4,-0.07,0.66,-0.07,37.79
4,-0.07,0.67,0.14,37.14
4,0.09,0.99,0.14,36.85
4,0.05,1.05,0.05,39.20
4,0.05,1.05,-0.12,41.47
4,-0.05,0.73,-0.12,41.52
4,0.01,1.20,0.11,39.96
4,0.01,1.48,0.14,38.07
4,-0.01,1.48,0.14,39.13
4,-0.05,0.62,-0.11,39.13
4,-0.05,0.85,0.09,39.21
4,0.08,0.85,0.10,37.44
4,0.06,1.26,0.10,37.44
4,0.02,0.61,-0.15,39.63
4,-0.04,0.61,-0.17,41.38
4,-0.02,1.10,0.08,41.38
4,0.03,1.66,0.25,38.19
4,0.03,1.66,-0.13,37.07
4,-0.05,0.64,-0.13,37.07
4,0.06,0.82,0.07,39.06
4,0.06,0.85,0.19,40.20
4,0.07,1.41,0.19,40.42
4,-0.05,0.56,-0.19,40.42
4,-0.05,0.55,0.04,41.39
4,-0.03,1.05,0.04,38.76
4,0.02,1.73,0.27,38.76
4,0.02,0.65,-0.12,38.38
4,-0.05,0.65,-0.12,38.85
4,0.04,0.79,0.04,38.85
4,0.04,1.34,0.23,39.40
4,0.10,1.34,0.20,39.26
4,-0.06,0.55,-0.17,39.26
4,-0.01,0.92,-0.01,39.24
4,-0.01,0.92,0.25,39.42
4,0.02,1.62,0.25,39.42
4,-0.05,0.80,-0.06,40.91
4,-0.05,0.80,0.01,39.70
4,0.06,0.70,0.01,39.79
4,0.08,1.24,0.19,39.79
4,0.08,1.24,-0.11,39.65
4,-0.07,0.68,-0.11,39.22
4,-0.04,0.85,-0.04,37.65
4,-0.04,1.52,0.21,40.07
4,0.02,1.52,0.21,38.77
4,-0.07,1.02,0.01,38.77
4,-0.07,0.72,0.00,40.48
4,0.02,0.72,0.04,40.02
4,0.09,1.11,0.16,40.02
4,0.10,0.90,-0.04,38.64
4,-0.02,0.90,-0.02,38.74
4,-0.08,0.83,-0.08,38.74
4,-0.02,1.40,0.16,39.18
4,-0.02,1.40,0.07,39.44
4,-0.06,1.31,0.07,39.44
4,-0.06,0.68,-0.06,38.46
4,-0.06,0.63,0.13,40.21
4,0.08,0.94,0.13,40.41
4,0.06,1.07,0.05,37.27
4,0.06,1.07,-0.12,39.81
4,-0.07,0.70,-0.12,39.52
4,0.00,1.22,0.12,40.30
4,0.00,1.52,0.15,37.72
4,0.00,1.52,0.15,39.37
4,-0.05,0.63,-0.11,39.37
4,-0.05,0.82,0.08,41.02
4,0.08,0.82,0.10,39.25
4,0.06,1.24,0.10,39.25
4,0.06,0.61,-0.15,39.61
4,-0.06,0.61,-0.17,40.08
4,-0.02,1.13,0.08,40.08
4,0.03,1.67,0.24,39.05
4,0.03,1.67,-0.13,38.48
4,-0.05,0.63,-0.13,38.48
4,0.05,0.79,0.07,39.14
4,0.05,0.79,0.19,37.14
4,0.08,1.42,0.19,37.32
4,-0.05,0.58,-0.17,39.67
4,-0.05,0.61,0.04,37.63
4,-0.04,1.05,0.04,38.42
4,0.01,1.73,0.26,38.42
5,0.04,1.62,0.24,39.28
5,-0.06,0.75,-0.08,38.61
5,-0.06,0.75,0.02,39.66
5,0.05,0.73,0.02,39.66
5,0.10,1.23,0.19,38.83
5,0.10,1.20,-0.11,39.74
5,-0.06,0.70,-0.11,39.64
5,-0.05,0.86,-0.04,38.86
5,-0.05,1.49,0.20,39.76
5,0.02,1.49,0.20,39.16
5,-0.08,1.01,0.02,39.16
5,-0.08,0.72,0.00,38.59
5,0.01,0.72,0.00,40.09
5,0.09,1.11,0.16,40.09
5,0.10,0.91,-0.04,40.96
5,-0.03,0.91,-0.02,38.50
5,-0.10,0.81,-0.08,38.50
5,-0.01,1.39,0.15,38.72
5,-0.01,1.39,0.07,38.58
5,-0.04,1.28,0.07,38.58
5,-0.07,0.69,-0.05,38.95
5,-0.07,0.69,0.13,40.25
5,0.09,0.97,0.13,40.21
5,0.05,1.04,0.04,40.21
5,0.05,1.02,-0.12,38.91
5,-0.07,0.71,-0.12,38.69
5,0.02,1.19,0.11,37.90
5,0.02,1.53,0.15,37.81
5,0.01,1.53,0.15,39.07
5,-0.06,0.66,-0.08,39.07
5,-0.06,0.81,0.07,39.96
5,0.07,0.81,0.10,38.31
5,0.06,1.23,0.10,38.31
5,0.01,0.60,-0.16,38.45
5,-0.06,0.60,-0.17,38.56
5,-0.02,1.12,0.08,38.56
5,0.03,1.70,0.27,38.09
5,0.03,1.70,-0.12,38.82
5,-0.06,0.65,-0.12,38.82
5,0.05,0.79,0.07,39.40
5,0.05,0.80,0.18,40.19
5,0.08,1.37,0.18,40.53
5,-0.06,0.54,-0.20,38.97
5,-0.06,0.51,0.04,40.49
5,-0.04,1.08,0.04,38.49
5,0.03,1.75,0.28,38.49
5,0.03,0.65,-0.11,40.07
5,-0.06,0.65,-0.11,39.04
5,0.05,0.75,0.02,39.04
5,0.04,1.31,0.24,39.00
5,0.10,1.31,0.21,39.60
5,-0.05,0.56,-0.17,39.60
5,-0.01,0.95,-0.00,39.67
5,-0.01,0.95,-0.06,38.44
5,0.02,1.64,0.25,38.44
5,-0.07,0.77,-0.07,38.78
5,-0.07,0.77,-0.01,39.81
5,0.06,0.67,-0.01,39.81
5,0.09,1.22,0.19,39.50
5,0.09,1.19,-0.10,40.48
5,-0.07,0.69,-0.10,40.30
5,-0.05,0.88,-0.03,41.08
5,-0.05,1.52,0.21,42.17
5,0.02,1.52,0.21,38.88
5,-0.08,0.98,0.01,38.88
5,-0.08,0.70,-0.02,39.71
5,0.00,0.70,-0.02,37.29
5,0.09,1.13,0.17,37.29
5,0.10,0.93,-0.02,40.96
5,-0.02,0.93,-0.01,39.83
5,-0.08,0.81,-0.08,39.83
5,-0.00,1.37,0.14,39.72
5,-0.00,1.37,0.07,38.76
5,-0.05,1.26,0.07,38.76
5,-0.06,0.66,-0.05,37.70
5,-0.06,0.66,0.14,39.18
5,0.09,0.99,0.14,39.68
5,0.05,1.09,0.07,39.68
5,0.05,1.11,-0.12,39.99
5,-0.07,0.67,-0.12,40.60
5,0.01,1.19,0.11,39.82
5,0.01,1.51,0.16,40.64
5,0.00,1.51,0.16,39.24
5,-0.07,0.65,-0.09,39.24
5,-0.07,0.86,0.10,39.10
5,0.06,0.86,0.11,39.49
5,0.07,1.25,0.11,39.49
5,0.07,0.57,-0.16,38.54
5,-0.06,0.57,-0.16,38.00
5,-0.01,1.11,0.09,38.00
5,0.01,1.70,0.26,40.58
5,0.01,1.70,-0.12,39.53
5,-0.06,0.66,-0.12,39.53
5,0.06,0.80,0.06,37.73
5,0.06,0.78,0.17,39.07
5,0.09,1.40,0.17,38.85
5,-0.05,0.55,-0.18,38.85
5,-0.05,0.50,0.05,37.41
5,-0.03,1.07,0.05,38.85
5,0.02,1.78,0.28,38.85
5,0.02,0.64,-0.11,40.68
5,-0.05,0.64,-0.11,38.79
5,0.06,0.77,0.02,38.79
5,0.05,1.32,0.22,39.54
5,0.11,1.32,0.21,37.03
5,-0.06,0.55,-0.16,37.03
5,-0.00,0.96,-0.00,40.82
5,-0.00,0.96,0.26,38.90
5,0.03,1.63,0.26,38.90
5,-0.07,0.77,-0.08,39.96
5,-0.07,0.77,-0.00,37.73
5,0.07,0.69,-0.00,37.73
5,0.09,1.21,0.17,39.04
5,0.09,1.21,-0.11,39.59
5,-0.06,0.71,-0.11,39.33
5,-0.05,0.87,-0.02,40.11
5,-0.05,1.52,0.21,38.03
5,0.01,1.52,0.21,41.04
5,-0.08,1.01,0.02,41.04
5,-0.08,0.70,-0.02,38.55
5,0.03,0.70,-0.02,37.41
5,0.10,1.10,0.16,37.41
5,0.11,0.92,-0.04,36.74
5,-0.01,0.92,-0.01,39.12
5,-0.08,0.81,-0.07,39.12
5,-0.02,1.38,0.15,38.73
5,-0.02,1.38,0.06,38.67
5,-0.05,1.25,0.06,38.67
5,-0.05,0.67,-0.06,40.58
5,-0.05,0.67,0.14,40.40
5,0.10,0.97,0.14,40.05
5,0.05,1.08,0.06,39.27
5,0.05,1.06,-0.11,40.73
5,-0.06,0.69,-0.11,40.85
5,0.01,1.18,0.11,38.50
5,0.01,1.50,0.13,41.06
5,-0.00,1.50,0.13,40.08
5,-0.05,0.62,-0.11,40.08
5,-0.05,0.85,0.08,38.68
5,0.07,0.85,0.11,39.80
5,0.08,1.27,0.11,39.80
5,0.06,0.59,-0.15,38.15
5,-0.06,0.59,-0.17,38.67
5,-0.01,1.11,0.08,38.67
5,0.03,1.67,0.25,37.96
5,0.03,1.67,-0.13,37.44
5,-0.06,0.63,-0.13,37.44
5,0.06,0.84,0.06,38.85
5,0.06,0.83,0.18,40.17
5,0.09,1.39,0.18,40.66
5,-0.04,0.56,-0.18,38.31
5,-0.04,0.54,0.04,37.76
5,-0.03,1.04,0.04,37.91
5,0.03,1.73,0.27,37.91
5,0.03,0.67,-0.10,37.18
5,-0.05,0.67,-0.10,37.82
5,0.04,0.77,0.03,37.82
5,0.04,1.31,0.23,38.71
5,0.10,1.31,0.22,40.06
5,-0.05,0.56,-0.16,40.06
5,-0.01,0.92,-0.01,39.42
5,-0.01,0.92,0.25,39.73
5,0.03,1.62,0.25,39.73
5,-0.06,0.76,-0.06,39.66
5,-0.06,0.76,0.00,39.63
5,0.08,0.72,0.00,39.63
5,0.10,1.18,0.18,38.82
5,0.10,1.17,-0.11,39.09
5,-0.05,0.67,-0.11,38.38
5,-0.04,0.86,-0.03,39.94
5,-0.04,1.50,0.21,38.31
5,0.03,1.50,0.21,39.35
5,-0.08,1.02,0.01,39.35
5,-0.08,0.70,-0.02,39.79
5,0.01,0.70,-0.02,38.82
5,0.10,1.09,0.16,38.82
5,0.11,0.91,-0.04,37.29
5,-0.01,0.91,-0.01,38.68
5,-0.08,0.83,-0.07,38.68
5,-0.00,1.39,0.14,40.56
5,-0.00,1.39,0.07,39.69
5,-0.02,1.29,0.07,39.69
5,-0.06,0.67,-0.06,40.79
5,-0.06,0.67,0.13,41.33
5,0.09,0.95,0.13,41.12
5,0.06,1.05,0.05,41.12
5,0.06,1.02,-0.11,39.17
5,-0.06,0.70,-0.11,39.73
5,0.02,1.17,0.11,39.73
5,0.02,1.51,0.15,38.70
5,0.02,1.51,0.15,36.86
5,-0.05,0.63,-0.10,36.86
5,-0.06,0.82,0.07,39.45
5,0.07,0.82,0.10,41.19
5,0.07,1.25,0.10,41.19
5,0.08,0.60,-0.16,40.50
5,-0.04,0.60,-0.16,39.75
5,-0.00,1.09,0.09,39.75
5,0.04,1.68,0.25,39.65
5,0.04,1.68,-0.13,39.04
5,-0.05,0.64,-0.13,39.04
5,0.05,0.80,0.06,38.90
5,0.05,0.77,0.18,37.10
5,0.10,1.40,0.18,37.36
5,-0.03,0.54,-0.18,38.93
5,-0.03,0.52,0.03,40.06
5,-0.03,1.02,0.03,40.12
5,0.03,1.74,0.27,40.12
5,0.03,0.65,-0.11,38.99
5,-0.04,0.65,-0.11,39.23
5,0.05,0.76,0.02,39.23
5,0.05,1.33,0.23,38.48
5,0.11,1.33,0.22,38.94
5,-0.04,0.54,-0.15,38.94
5,-0.01,0.91,-0.01,38.47
5,-0.01,0.91,0.24,38.41
5,0.03,1.60,0.24,38.41
5,-0.05,0.79,-0.07,39.30
5,-0.05,0.79,0.01,41.03
5,0.07,0.69,0.01,41.03
5,0.10,1.22,0.19,38.36
5,0.10,1.25,-0.09,39.69
5,-0.06,0.69,-0.09,39.69
5,-0.04,0.85,-0.04,40.47
5,-0.04,1.49,0.19,40.07
5,0.02,1.49,0.19,40.23
5,-0.06,1.03,0.02,40.23
5,-0.06,0.69,-0.00,40.03
5,0.00,0.69,-0.01,39.09
5,0.10,1.10,0.18,39.09
5,0.10,0.90,-0.04,41.82
5,-0.02,0.90,-0.03,38.56
5,-0.08,0.81,-0.09,38.56
5,0.00,1.37,0.14,39.30
6,0.02,1.18,0.11,40.98
6,0.02,1.53,0.15,41.03
6,0.02,1.53,0.15,39.00
6,-0.06,0.63,-0.11,39.00
6,-0.06,0.83,0.07,38.54
6,0.07,0.83,0.11,37.06
6,0.06,1.26,0.11,37.06
6,-0.06,0.58,-0.17,39.36
6,-0.06,0.58,0.09,39.16
6,0.00,1.10,0.09,39.16
6,0.04,1.67,0.26,41.51
6,0.04,1.67,-0.13,40.79
6,-0.05,0.65,-0.13,40.91
6,0.05,0.79,0.05,37.78
6,0.05,0.78,0.18,38.20
6,0.09,1.40,0.18,37.78
6,-0.05,0.56,-0.19,38.57
6,-0.05,1.04,0.04,39.65
6,-0.03,1.04,0.04,38.12
6,0.03,1.74,0.27,38.12
6,0.03,0.64,-0.12,39.03
6,-0.05,0.64,-0.09,39.06
6,0.04,0.77,0.03,39.06
6,0.04,1.34,0.24,38.35
6,0.11,1.34,0.22,38.56
6,-0.06,0.55,-0.16,38.56
6,0.02,0.92,-0.01,36.93
6,0.02,0.92,0.24,38.88
6,0.04,1.60,0.24,38.88
6,-0.06,0.77,-0.07,38.50
6,-0.06,0.77,0.01,38.76
6,0.05,0.71,0.01,38.86
6,0.10,1.21,0.19,38.86
6,0.10,1.19,-0.10,38.20
6,-0.05,0.69,-0.10,38.91
6,-0.04,0.86,-0.04,38.91
6,-0.04,1.47,0.19,39.64
6,0.03,1.47,0.19,39.12
6,-0.09,1.02,0.01,39.12
6,-0.11,0.69,-0.02,40.28
6,0.02,0.69,-0.02,38.48
6,0.11,1.11,0.17,38.48
6,0.11,0.91,-0.04,37.96
6,-0.02,0.91,-0.08,39.17
6,-0.08,0.80,-0.08,39.17
6,0.00,1.38,0.14,38.73
6,0.00,1.38,0.07,38.61
6,-0.04,1.26,0.07,38.61
6,-0.06,0.66,-0.06,39.82
6,-0.06,0.65,0.13,39.04
6,0.10,0.96,0.13,38.59
6,0.05,1.06,0.05,39.37
6,0.05,1.02,-0.13,35.89
6,-0.06,0.71,-0.13,39.64
6,0.01,1.18,0.10,39.64
6,0.01,1.50,0.13,40.18
6,0.01,1.50,0.13,39.54
6,-0.05,0.62,-0.11,39.54
6,-0.04,0.83,0.09,38.29
6,0.09,0.83,0.12,37.65
6,0.07,1.26,0.12,37.65
6,-0.05,0.60,-0.16,40.25
6,-0.05,0.60,0.08,38.61
6,0.00,1.11,0.08,38.61
6,0.02,1.68,0.25,38.38
6,0.02,1.68,-0.13,39.89
6,-0.06,0.62,-0.13,40.22
6,0.07,0.82,0.06,40.22
6,0.07,0.83,0.18,39.53
6,0.08,1.39,0.18,39.24
6,-0.03,0.54,-0.19,40.02
6,-0.03,1.02,0.03,40.46
6,-0.01,1.02,0.03,39.18
6,0.02,1.73,0.28,39.18
6,0.02,0.65,-0.10,39.79
6,-0.05,0.65,-0.10,38.39
6,0.06,0.78,0.03,38.39
6,0.10,1.31,0.22,39.19
6,0.10,1.31,0.21,38.20
6,-0.05,0.56,-0.17,38.20
6,0.01,0.92,-0.00,38.39
6,0.01,0.92,0.25,38.28
6,0.02,1.63,0.25,38.28
6,-0.06,0.77,-0.06,37.13
6,-0.06,0.77,-0.00,39.66
6,0.07,0.71,-0.00,39.32
6,0.09,1.20,0.17,40.10
6,0.09,1.23,-0.12,39.43
6,-0.05,0.67,-0.12,40.24
6,-0.03,0.85,-0.03,40.24
6,-0.03,1.50,0.20,37.79
6,0.02,1.50,0.20,38.32
6,-0.08,1.03,0.02,38.32
6,-0.11,0.71,-0.02,39.39
6,0.01,0.71,-0.03,39.76
6,0.09,1.08,0.15,39.76
6,0.11,0.93,-0.05,40.99
6,-0.02,0.93,-0.07,41.01
6,-0.07,0.82,-0.07,41.01
6,-0.01,1.37,0.13,39.02
6,-0.01,1.37,0.06,36.98
6,-0.04,1.29,0.06,36.98
6,-0.06,0.66,-0.05,39.86
6,-0.06,0.65,0.14,38.53
6,0.09,0.96,0.14,38.80
6,0.05,1.07,0.07,41.15
6,0.05,0.69,-0.12,40.16
6,-0.05,0.69,-0.12,40.22
6,0.01,1.17,0.10,40.22
6,0.01,1.51,0.13,39.29
6,0.00,1.51,0.15,40.04
6,-0.05,0.63,-0.10,40.04
6,-0.05,0.84,0.08,39.63
6,0.07,0.84,0.11,37.94
6,0.06,1.25,0.11,37.94
6,-0.04,0.62,-0.17,39.32
6,-0.04,0.62,0.07,38.73
6,-0.01,1.09,0.07,38.73
6,0.02,1.68,0.25,39.51
6,0.02,1.68,-0.13,40.60
6,-0.05,0.65,-0.13,40.48
6,0.06,0.79,0.07,40.48
6,0.06,0.79,0.19,40.20
6,0.08,1.41,0.19,40.36
6,-0.04,0.56,-0.18,38.01
6,-0.04,1.05,0.04,39.62
6,-0.04,1.05,0.04,38.53
6,0.02,1.74,0.27,38.53
6,0.02,0.64,-0.11,36.62
6,-0.05,0.64,-0.11,38.32
6,0.05,0.77,0.01,38.32
6,0.03,1.33,0.23,38.61
6,0.09,1.33,0.21,38.25
6,-0.04,0.57,-0.16,38.25
6,-0.02,0.93,-0.01,41.06
6,-0.02,0.93,0.24,39.41
6,0.03,1.60,0.24,39.41
6,-0.07,0.79,-0.07,37.70
6,-0.07,0.78,0.01,40.57
6,0.06,0.72,0.01,40.41
6,0.08,1.22,0.19,38.06
6,0.08,1.20,-0.11,39.10
6,-0.06,0.70,-0.11,39.46
6,-0.05,0.86,-0.03,39.46
6,-0.05,1.48,0.20,39.83
6,0.02,1.48,0.20,38.32
6,-0.07,1.03,0.02,38.32
6,-0.10,0.71,-0.01,38.63
6,0.03,0.71,-0.03,37.46
6,0.09,1.11,0.16,37.46
6,0.10,0.90,-0.05,38.87
6,-0.02,0.90,-0.08,37.96
6,-0.07,0.81,-0.08,37.96
6,-0.01,1.36,0.15,38.25
6,-0.01,1.36,0.08,38.41
6,-0.04,1.29,0.08,38.41
6,-0.07,0.69,-0.04,40.23
6,-0.07,0.72,0.13,39.15
6,0.08,0.97,0.13,39.76
6,0.05,1.07,0.05,39.76
6,0.05,0.68,-0.12,39.12
6,-0.06,0.68,-0.12,39.70
6,0.01,1.17,0.11,39.70
6,0.01,1.54,0.15,40.41
6,0.01,1.54,0.15,40.32
6,-0.06,0.63,-0.10,40.32
6,-0.00,0.83,0.08,39.99
6,0.06,0.83,0.11,39.87
6,0.07,1.25,0.11,39.87
6,-0.06,0.57,-0.15,37.63
6,-0.06,0.57,0.08,39.80
6,-0.02,1.13,0.08,39.80
6,0.03,1.70,0.25,39.39
6,0.03,1.70,-0.13,39.55
6,-0.06,0.64,-0.13,39.16
6,0.05,0.79,0.06,38.38
6,0.05,0.76,0.19,38.09
6,0.09,1.39,0.19,38.08
6,-0.05,0.56,-0.18,38.86
6,-0.05,1.06,0.03,38.44
6,-0.04,1.06,0.03,38.10
6,0.02,1.75,0.26,38.10
6,0.01,0.65,-0.11,40.40
6,-0.05,0.65,-0.10,38.59
6,0.05,0.75,0.02,38.59
6,0.05,1.36,0.23,40.36
6,0.11,1.36,-0.15,41.26
6,-0.06,0.57,-0.15,41.26
6,-0.01,0.94,-0.00,38.74
6,-0.01,0.94,0.23,39.10
6,0.03,1.61,0.23,39.10
6,-0.06,0.76,-0.07,39.90
6,-0.06,0.75,0.01,40.34
6,0.06,0.69,0.01,40.37
6,0.10,1.24,0.18,39.59
6,0.10,0.71,-0.10,39.68
6,-0.06,0.71,-0.10,39.13
6,-0.06,0.88,-0.04,39.13
6,-0.06,1.47,0.20,39.18
6,0.02,1.47,0.20,39.68
6,-0.08,1.02,0.02,39.68
6,-0.11,0.71,-0.02,38.82
6,0.01,0.71,-0.02,38.31
6,0.10,1.12,0.17,38.31
6,-0.03,0.95,-0.04,39.09
6,-0.03,0.95,-0.08,40.18
6,-0.09,0.79,-0.08,40.18
6,-0.01,1.37,0.14,39.74
6,-0.01,1.37,0.08,40.21
6,-0.04,1.27,0.08,39.89
6,-0.07,0.68,-0.05,40.67
6,-0.07,0.67,0.14,42.63
6,0.08,0.98,0.14,42.55
6,0.04,1.08,0.07,39.42
6,0.04,0.69,-0.13,37.83
6,-0.07,0.69,-0.13,39.80
6,0.02,1.17,0.11,39.80
6,0.00,1.54,0.15,39.81
6,0.00,1.54,0.15,38.33
6,-0.06,0.66,-0.10,38.33
6,-0.00,0.84,0.09,40.20
6,0.06,0.84,0.11,41.00
6,0.06,1.24,0.11,41.00
6,-0.06,0.60,-0.17,38.27
6,-0.06,0.60,0.07,39.25
6,-0.00,1.10,0.07,39.25
6,0.02,1.71,0.26,40.14
6,0.02,1.74,-0.12,39.40
6,-0.05,0.68,-0.12,39.76
6,0.05,0.80,0.06,39.76
6,0.05,0.75,0.18,40.02
6,0.09,1.38,0.18,39.57
6,-0.05,0.52,-0.18,39.57
7,-0.06,0.55,-0.15,40.72
7,0.00,0.95,0.01,38.02
7,0.00,0.95,0.26,38.50
7,0.02,1.64,0.26,38.65
7,-0.07,0.80,-0.07,37.87
7,-0.07,0.80,-0.01,38.68
7,0.06,0.68,-0.01,38.52
7,0.10,1.20,0.18,40.87
7,0.10,0.70,-0.11,39.95
7,-0.07,0.70,-0.11,39.29
7,-0.05,0.91,-0.03,39.29
7,-0.05,1.53,0.20,40.57
7,0.02,1.53,0.21,41.37
7,-0.10,1.00,0.02,41.37
7,-0.11,0.69,-0.02,37.58
7,0.01,0.69,0.17,40.09
7,0.09,1.12,0.17,40.09
7,-0.02,0.94,-0.02,41.01
7,-0.02,0.94,-0.07,40.05
7,-0.07,0.84,-0.07,40.05
7,-0.02,1.37,0.15,38.86
7,-0.02,1.32,0.07,38.86
7,-0.06,1.26,0.07,38.80
7,-0.07,0.65,-0.05,37.23
7,-0.07,0.98,0.14,40.56
7,0.09,0.98,0.14,39.76
7,0.04,1.11,0.07,39.76
7,0.04,0.71,-0.12,40.09
7,-0.05,0.71,-0.12,39.84
7,0.01,1.16,0.10,39.84
7,0.01,1.49,0.13,39.55
7,0.01,1.49,0.15,39.25
7,-0.06,0.62,-0.10,39.25
7,0.07,0.86,0.09,38.58
7,0.07,0.86,0.13,39.06
7,0.05,1.27,0.13,39.06
7,-0.05,0.58,-0.17,38.70
7,-0.05,0.60,0.08,40.46
7,-0.01,1.10,0.08,40.05
7,0.02,1.67,0.26,40.05
7,0.02,1.64,-0.12,38.79
7,-0.06,0.64,-0.12,38.71
7,0.06,0.83,0.07,39.50
7,0.06,1.42,0.19,39.98
7,0.07,1.42,0.19,39.58
7,-0.05,0.54,-0.18,39.58
7,-0.04,1.03,0.04,39.28
7,-0.04,1.03,0.02,39.56
7,-0.00,1.76,0.27,39.56
7,-0.06,0.68,-0.10,39.41
7,-0.06,0.68,-0.09,39.78
7,0.05,0.79,0.03,39.78
7,0.10,1.33,0.22,38.55
7,0.10,1.33,-0.16,39.54
7,-0.07,0.55,-0.16,39.54
7,-0.01,0.93,-0.00,38.75
7,-0.01,0.89,0.25,39.08
7,0.02,1.64,0.25,38.52
7,-0.06,0.80,-0.06,41.65
7,-0.06,0.71,0.00,39.31
7,0.06,0.71,0.00,38.54
7,0.08,1.18,0.17,38.54
7,0.08,0.69,-0.10,39.03
7,-0.07,0.69,-0.10,38.80
7,-0.05,0.88,-0.02,38.80
7,-0.06,1.51,0.21,38.50
7,0.00,1.51,0.21,39.10
7,-0.09,1.04,0.03,39.10
7,0.02,0.70,-0.02,39.93
7,0.02,0.70,0.15,37.74
7,0.10,1.07,0.15,37.74
7,-0.02,0.92,-0.04,40.20
7,-0.02,0.92,-0.07,39.89
7,-0.08,0.82,-0.07,40.62
7,-0.02,1.40,0.17,38.27
7,-0.02,1.39,0.07,38.27
7,-0.05,1.26,0.07,38.08
7,-0.06,0.65,-0.05,38.08
7,-0.06,0.95,0.13,39.29
7,0.10,0.95,0.13,41.47
7,0.05,1.06,0.05,41.47
7,0.05,0.74,-0.11,39.44
7,-0.07,0.74,-0.07,38.86
7,-0.01,1.19,0.11,38.86
7,-0.00,1.50,0.15,41.24
7,-0.00,1.50,0.15,38.25
7,-0.05,0.61,-0.10,38.25
7,0.07,0.82,0.08,39.77
7,0.07,0.82,0.12,39.06
7,0.07,1.28,0.12,39.06
7,-0.05,0.61,-0.16,40.77
7,-0.05,0.61,0.08,37.92
7,-0.01,1.11,0.08,37.90
7,0.03,1.64,0.25,41.03
7,0.03,1.68,-0.14,39.46
7,-0.05,0.62,-0.14,39.38
7,0.05,0.84,0.07,39.38
7,0.05,1.40,0.19,37.69
7,0.08,1.40,0.19,38.27
7,-0.05,0.57,-0.16,38.27
7,-0.02,1.04,0.03,37.97
7,-0.02,1.04,0.02,41.20
7,0.02,1.70,0.27,41.20
7,0.01,0.66,-0.12,41.10
7,-0.05,0.66,0.04,39.74
7,0.05,0.78,0.04,39.74
7,0.11,1.33,0.23,38.95
7,0.11,1.33,-0.15,39.36
7,-0.05,0.57,-0.15,39.81
7,-0.00,0.90,-0.02,39.81
7,-0.00,0.91,0.24,39.67
7,0.02,1.60,0.24,39.81
7,-0.06,0.77,-0.07,39.02
7,-0.06,0.74,0.01,38.55
7,0.05,0.74,0.01,40.71
7,0.09,1.22,0.19,40.71
7,0.09,0.68,-0.09,40.70
7,-0.05,0.68,-0.08,39.85
7,-0.04,0.85,-0.02,39.85
7,-0.04,1.49,0.21,39.18
7,0.02,1.49,0.20,37.57
7,-0.08,1.04,0.01,37.57
7,0.01,0.72,-0.01,39.34
7,0.01,0.72,0.15,41.18
7,0.10,1.09,0.15,41.18
7,-0.03,0.91,-0.05,40.11
7,-0.03,0.93,-0.08,39.00
7,-0.09,0.81,-0.08,38.74
7,-0.01,1.39,0.16,39.52
7,-0.01,1.43,0.08,40.18
7,-0.04,1.31,0.08,40.25
7,-0.05,0.66,-0.06,39.47
7,-0.05,0.93,0.11,37.82
7,0.09,0.93,0.11,39.38
7,0.06,1.07,0.05,39.38
7,0.01,0.69,-0.13,38.92
7,-0.06,0.69,-0.13,39.75
7,0.02,1.19,0.12,39.75
7,0.01,1.54,0.15,40.34
7,0.01,1.54,0.15,40.27
7,-0.05,0.62,-0.10,40.27
7,0.06,0.81,0.09,38.21
7,0.06,0.81,0.12,38.74
7,0.07,1.25,0.12,38.74
7,-0.05,0.60,-0.17,38.04
7,-0.05,0.60,0.07,39.91
7,-0.02,1.10,0.07,40.06
7,0.04,1.69,0.26,38.49
7,0.04,0.64,-0.12,40.02
7,-0.05,0.64,-0.12,39.38
7,0.06,0.79,0.06,39.38
7,0.06,1.40,0.17,39.47
7,0.09,1.40,0.17,39.66
7,-0.03,0.55,-0.18,39.66
7,-0.03,1.03,0.03,38.77
7,-0.03,1.03,0.03,37.22
7,0.02,1.74,0.28,37.22
7,-0.05,0.65,-0.11,38.85
7,-0.05,0.65,0.03,40.28
7,0.04,0.77,0.03,40.28
7,0.11,1.32,0.23,40.90
7,0.11,1.32,-0.16,38.40
7,-0.05,0.56,-0.16,38.60
7,0.00,0.92,-0.01,40.17
7,0.00,0.91,0.24,39.55
7,0.05,1.60,0.24,39.78
7,-0.05,0.80,-0.07,37.43
7,-0.05,0.70,-0.00,39.10
7,0.06,0.70,-0.00,38.89
7,0.10,1.21,0.19,38.89
7,0.10,0.72,-0.08,40.15
7,-0.05,0.72,-0.09,38.92
7,-0.04,0.86,-0.03,38.92
7,-0.04,1.49,0.20,38.34
7,0.03,1.49,0.20,42.52
7,-0.08,1.03,0.01,42.52
7,-0.00,0.70,-0.01,39.11
7,-0.00,0.70,0.16,40.34
7,0.10,1.12,0.16,40.34
7,-0.01,0.93,-0.04,40.32
7,-0.01,0.92,-0.08,42.80
7,-0.08,0.80,-0.08,42.74
7,-0.00,1.34,0.15,38.04
7,-0.00,1.33,0.07,40.63
7,-0.04,1.27,0.07,38.88
7,-0.07,0.67,-0.06,38.88
7,-0.07,0.95,0.15,38.47
7,0.10,0.95,0.15,38.13
7,0.06,1.08,0.06,38.13
7,0.07,0.69,-0.13,39.83
7,-0.05,0.69,-0.16,39.40
7,0.02,1.17,0.09,39.40
7,0.01,1.52,0.15,40.27
7,0.01,1.52,-0.10,40.29
7,-0.05,0.62,-0.10,40.29
7,0.07,0.85,0.09,41.34
7,0.07,0.85,0.13,40.34
7,0.07,1.25,0.13,40.34
7,-0.05,0.56,-0.16,38.51
7,-0.05,0.55,0.08,38.65
7,0.00,1.11,0.08,38.75
7,0.04,1.70,0.25,38.75
7,0.04,0.63,-0.12,39.42
7,-0.05,0.63,-0.12,38.60
7,0.07,0.80,0.06,38.60
7,0.07,1.38,0.17,39.52
7,0.09,1.38,0.17,37.64
7,-0.05,0.55,-0.18,37.64
7,-0.03,1.04,0.04,39.03
7,-0.03,1.04,0.02,39.21
7,0.02,1.75,0.27,39.21
7,-0.05,0.66,-0.10,39.72
7,-0.05,0.66,0.02,38.28
7,0.06,0.75,0.02,38.28
7,0.10,1.33,0.22,39.41
7,0.10,1.33,-0.16,42.33
7,-0.04,0.53,-0.16,42.98
7,-0.01,0.93,-0.01,41.41
7,-0.01,0.88,0.25,39.24
7,0.04,1.63,0.25,39.40
7,-0.07,0.77,-0.06,40.18
7,-0.07,0.70,-0.01,39.58
7,0.06,0.70,-0.01,39.43
7,0.10,1.20,0.16,39.43
7,0.10,0.69,-0.10,38.27
7,-0.05,0.69,-0.08,38.41
7,-0.03,0.85,-0.02,38.41
7,-0.03,1.49,0.20,38.03
7,0.03,1.49,0.22,38.63
7,-0.09,1.04,0.03,38.63
7,0.02,0.69,-0.02,39.68
7,0.02,0.69,0.14,39.41
7,0.11,1.09,0.14,39.41
8,0.10,0.96,0.12,39.65
8,0.06,1.08,0.07,39.65
8,0.01,0.69,-0.12,39.91
8,-0.05,0.69,-0.09,40.47
8,0.01,1.18,0.10,40.47
8,0.01,1.50,0.13,39.50
8,0.01,1.50,-0.08,37.56
8,-0.06,0.64,-0.08,37.56
8,0.07,0.82,0.08,39.86
8,0.07,0.82,0.13,39.50
8,0.07,1.26,0.13,39.41
8,-0.04,0.59,-0.16,38.63
8,-0.04,0.59,0.06,38.31
8,-0.00,1.09,0.06,37.82
8,0.03,1.67,0.25,39.38
8,0.03,0.64,-0.13,37.80
8,-0.06,0.64,-0.13,38.79
8,0.06,0.83,0.07,38.79
8,0.08,1.39,0.19,39.75
8,0.08,1.39,0.19,40.06
8,-0.03,0.54,-0.18,40.06
8,-0.01,1.06,0.02,37.67
8,-0.01,1.06,0.03,38.74
8,0.02,1.71,0.28,38.74
8,-0.05,0.65,-0.12,40.02
8,-0.05,0.65,0.03,40.20
8,0.05,0.76,0.03,40.20
8,0.11,1.32,0.23,41.29
8,0.11,1.32,-0.15,39.51
8,-0.05,0.57,-0.15,39.57
8,-0.00,0.92,-0.01,40.35
8,-0.00,0.90,0.23,39.20
8,0.03,1.58,0.23,38.38
8,-0.05,0.79,-0.06,38.38
8,-0.05,0.69,0.00,39.68
8,0.07,0.69,0.00,38.89
8,0.09,1.21,0.18,38.89
8,0.07,0.69,-0.10,38.23
8,-0.06,0.69,-0.08,39.21
8,-0.04,0.84,-0.02,39.21
8,0.02,1.48,0.20,37.90
8,0.02,1.48,0.01,38.62
8,-0.07,1.02,0.01,38.62
8,0.03,0.70,-0.02,39.03
8,0.03,0.70,0.15,38.85
8,0.10,1.08,0.15,39.01
8,-0.03,0.91,-0.05,40.57
8,-0.03,0.94,-0.08,38.18
8,-0.08,0.81,-0.08,37.71
8,-0.01,1.36,0.16,40.06
8,-0.01,1.28,0.08,39.06
8,-0.03,1.28,0.08,41.02
8,-0.05,0.66,-0.06,41.02
8,-0.05,0.96,0.12,38.58
8,0.09,0.96,0.12,39.61
8,0.04,1.09,0.06,39.61
8,0.01,0.68,-0.13,40.90
8,-0.05,0.68,-0.08,39.37
8,0.02,1.17,0.10,39.37
8,0.02,1.53,0.15,40.28
8,0.02,1.53,-0.09,38.81
8,-0.05,0.63,-0.09,38.81
8,0.06,0.83,0.08,40.63
8,0.06,0.87,0.12,40.02
8,0.07,1.25,0.12,40.44
8,-0.04,0.58,-0.17,39.66
8,-0.04,0.59,0.08,38.13
8,-0.01,1.09,0.08,37.62
8,0.03,1.68,0.26,37.62
8,0.03,0.67,-0.12,39.26
8,-0.05,0.67,-0.12,38.63
8,0.06,0.78,0.06,38.63
8,0.03,1.39,0.18,40.53
8,0.09,1.39,0.13,38.51
8,-0.03,0.53,-0.19,38.51
8,-0.03,1.03,0.04,41.28
8,-0.03,1.03,0.28,41.69
8,0.01,1.74,0.28,41.69
8,-0.05,0.66,-0.10,38.13
8,-0.05,0.66,0.02,38.71
8,0.05,0.75,0.02,38.71
8,0.11,1.32,0.22,39.98
8,0.11,1.31,-0.15,37.45
8,-0.04,0.56,-0.15,36.81
8,-0.01,0.93,0.00,39.95
8,-0.01,1.61,0.23,38.21
8,0.03,1.61,0.23,38.99
8,-0.05,0.79,-0.08,38.99
8,-0.05,0.68,-0.01,37.70
8,0.06,0.68,-0.02,40.18
8,0.10,1.18,0.17,40.18
8,0.07,0.72,-0.10,39.22
8,-0.05,0.72,-0.08,39.11
8,-0.04,0.86,-0.02,39.11
8,0.02,1.46,0.19,40.09
8,0.02,1.46,0.01,41.09
8,-0.08,1.04,0.01,41.09
8,0.01,0.69,-0.01,38.36
8,0.01,0.74,0.16,39.23
8,0.09,1.11,0.16,39.25
8,-0.01,0.94,-0.04,40.04
8,-0.01,0.99,-0.08,39.53
8,-0.07,0.80,-0.08,39.16
8,-0.00,1.36,0.14,39.94
8,-0.00,1.26,0.08,39.12
8,-0.03,1.26,0.08,38.95
8,-0.06,0.67,-0.05,38.95
8,-0.03,0.96,0.13,40.01
8,0.09,0.96,0.13,41.54
8,0.05,1.10,0.06,41.54
8,0.01,0.69,-0.12,39.13
8,-0.05,0.69,-0.09,38.12
8,0.01,1.15,0.10,38.12
8,0.03,1.53,0.14,39.70
8,0.03,1.53,-0.09,39.61
8,-0.04,0.64,-0.09,39.61
8,0.05,0.84,0.08,39.84
8,0.05,0.83,0.12,40.51
8,0.07,1.27,0.12,40.45
8,-0.06,0.58,-0.17,39.66
8,-0.06,1.10,0.08,40.68
8,0.00,1.10,0.08,39.56
8,0.03,1.69,0.26,39.56
8,0.03,0.65,-0.11,39.34
8,-0.05,0.65,-0.11,38.08
8,0.05,0.83,0.06,38.08
8,0.02,1.39,0.17,39.21
8,0.09,1.39,0.19,38.90
8,-0.07,0.53,-0.19,38.90
8,-0.02,1.04,0.03,38.60
8,-0.02,1.04,0.28,41.77
8,0.02,1.74,0.28,41.77
8,-0.06,0.68,-0.10,38.49
8,-0.06,0.68,0.02,38.88
8,0.04,0.76,0.02,38.36
8,0.11,1.32,0.22,39.92
8,0.11,1.37,-0.14,41.48
8,-0.05,0.56,-0.14,41.95
8,-0.00,0.92,-0.01,39.60
8,-0.00,1.62,0.24,38.30
8,0.03,1.62,0.24,38.45
8,-0.06,0.80,-0.06,38.45
8,-0.06,0.69,-0.01,39.62
8,0.05,0.69,-0.01,40.86
8,0.11,1.20,0.18,40.86
8,0.07,0.69,-0.10,38.43
8,-0.06,0.69,-0.08,40.58
8,-0.04,0.87,-0.02,40.58
8,0.01,1.49,0.20,40.16
8,0.01,1.49,0.03,38.80
8,-0.09,1.05,0.03,38.80
8,0.01,0.69,-0.02,39.52
8,0.01,0.70,0.15,39.29
8,0.11,1.08,0.15,39.23
8,-0.02,0.95,-0.04,39.23
8,-0.02,0.99,-0.06,38.80
8,-0.08,0.81,-0.06,38.35
8,-0.02,1.36,0.15,40.70
8,-0.02,1.29,0.08,38.88
8,-0.04,1.29,0.08,39.69
8,-0.06,0.65,-0.07,39.69
8,-0.04,0.94,0.13,38.31
8,0.09,0.94,0.13,38.97
8,0.04,1.10,0.07,38.97
8,0.05,0.71,-0.11,39.16
8,-0.07,0.71,-0.09,39.33
8,0.00,1.17,0.10,39.33
8,0.01,1.51,0.13,39.81
8,0.01,1.51,-0.11,39.33
8,-0.07,0.63,-0.11,39.33
8,0.07,0.84,0.08,38.27
8,0.07,0.83,0.14,37.74
8,0.07,1.27,0.14,37.74
8,-0.05,0.61,-0.16,40.87
8,-0.05,0.58,0.06,39.29
8,0.01,1.08,0.06,38.91
8,0.02,1.69,0.25,38.91
8,0.02,0.64,-0.12,39.50
8,-0.06,0.64,-0.12,38.85
8,0.05,0.83,0.07,38.85
8,0.02,1.41,0.17,38.73
8,0.08,1.41,0.14,39.79
8,-0.05,0.55,-0.18,39.79
8,-0.01,1.03,0.02,39.72
8,-0.01,1.03,0.27,40.73
8,0.02,1.72,0.27,40.73
8,-0.05,0.65,-0.11,39.29
8,-0.05,0.65,0.03,39.77
8,0.04,0.80,0.03,39.77
8,0.10,1.32,0.23,38.72
8,0.10,1.36,-0.16,40.80
8,-0.05,0.54,-0.16,41.05
8,0.00,0.92,-0.02,39.49
8,0.00,1.60,0.24,38.62
8,0.02,1.60,0.24,37.80
8,-0.07,0.83,-0.06,37.80
8,-0.07,0.72,-0.01,38.45
8,0.06,0.72,-0.01,37.94
8,0.08,1.20,0.17,37.94
8,0.12,0.69,-0.10,38.44
8,-0.07,0.69,-0.09,39.43
8,-0.03,0.85,-0.03,39.43
8,0.02,1.51,0.20,40.55
8,0.02,1.51,0.03,40.35
8,-0.09,1.06,0.03,40.35
8,0.02,0.72,-0.01,38.41
8,0.02,0.71,0.15,38.78
8,0.09,1.09,0.15,39.06
8,-0.03,0.93,-0.04,40.63
8,-0.03,0.88,-0.08,40.15
8,-0.08,0.81,-0.08,38.38
8,-0.03,1.39,0.16,38.38
8,-0.03,1.30,0.08,38.75
8,-0.05,1.30,0.08,39.53
8,-0.07,0.68,-0.06,39.53
8,-0.10,0.93,0.13,38.38
8,0.09,0.93,0.13,39.62
8,0.05,1.10,0.06,39.62
8,-0.06,0.70,-0.12,39.50
8,-0.06,0.70,0.11,39.12
8,-0.00,1.19,0.11,39.12
8,-0.01,1.54,0.16,38.35
8,-0.01,1.54,-0.10,38.18
8,-0.06,0.61,-0.10,37.67
8,0.07,0.82,0.08,38.46
8,0.07,0.84,0.13,38.98
8,0.07,1.27,0.13,37.91
8,-0.04,0.61,-0.18,37.91
8,-0.04,1.14,0.08,38.46
8,-0.02,1.14,0.08,38.42
8,0.02,1.69,0.26,38.42
8,0.06,0.63,-0.13,41.91
8,-0.07,0.63,-0.18,37.60
9,-0.06,0.63,0.03,42.36
9,0.05,0.76,0.03,39.02
9,0.09,1.36,0.23,39.02
9,0.09,0.59,-0.14,40.50
9,-0.06,0.59,-0.14,39.55
9,-0.00,0.92,-0.01,39.55
9,-0.04,1.60,0.23,39.04
9,0.02,1.60,0.25,39.42
9,-0.07,0.78,-0.07,39.42
9,0.05,0.73,0.00,40.24
9,0.05,0.73,0.19,40.94
9,0.09,1.21,0.19,40.94
9,-0.06,0.74,-0.09,39.19
9,-0.06,0.74,-0.02,39.54
9,-0.05,0.85,-0.02,39.75
9,0.02,1.47,0.19,38.18
9,0.02,1.48,0.02,39.21
9,-0.09,1.04,0.02,39.14
9,0.01,0.73,-0.01,36.79
9,0.01,1.10,0.17,40.16
9,0.09,1.10,0.17,38.82
9,-0.02,0.95,-0.04,38.82
9,-0.01,0.79,-0.08,40.24
9,-0.08,0.79,-0.11,40.06
9,-0.02,1.37,0.14,40.06
9,-0.03,1.29,0.08,39.84
9,-0.03,1.29,-0.05,38.82
9,-0.06,0.68,-0.05,38.82
9,0.08,0.96,0.14,38.78
9,0.08,0.96,0.06,37.47
9,0.05,1.07,0.06,37.34
9,-0.07,0.68,-0.13,38.13
9,-0.07,0.63,0.11,40.34
9,-0.00,1.19,0.11,39.96
9,0.01,1.53,0.14,40.75
9,0.01,0.65,-0.10,38.58
9,-0.05,0.65,-0.10,38.96
9,0.06,0.81,0.08,38.96
9,0.02,1.25,0.12,38.61
9,0.08,1.25,0.09,39.24
9,-0.06,0.58,-0.16,39.24
9,-0.02,1.12,0.07,39.57
9,-0.02,1.12,0.08,38.47
9,0.02,1.72,0.27,38.47
9,-0.05,0.64,-0.12,39.28
9,-0.05,0.64,0.06,40.22
9,0.05,0.80,0.06,40.22
9,0.09,1.38,0.17,40.91
9,0.09,1.43,-0.17,40.28
9,-0.07,0.55,-0.17,40.56
9,-0.03,1.06,0.03,39.78
9,-0.03,1.73,0.28,39.27
9,0.02,1.73,0.28,39.27
9,-0.05,0.65,-0.10,39.27
9,-0.05,0.75,0.04,40.61
9,0.05,0.75,0.04,37.77
9,0.09,1.29,0.22,37.77
9,0.08,0.59,-0.15,40.18
9,-0.05,0.59,-0.13,40.55
9,-0.02,0.92,-0.00,40.55
9,0.03,1.61,0.24,37.68
9,0.03,1.61,-0.06,38.72
9,-0.06,0.79,-0.06,38.72
9,0.06,0.69,-0.01,40.54
9,0.06,0.65,0.18,37.86
9,0.08,1.21,0.18,38.02
9,-0.05,0.72,-0.08,38.81
9,-0.05,0.74,-0.02,39.26
9,-0.05,0.86,-0.02,40.61
9,0.02,1.47,0.20,40.61
9,0.02,1.04,0.02,39.15
9,-0.08,1.04,0.02,39.75
9,0.00,0.71,-0.01,39.75
9,0.02,1.09,0.16,39.69
9,0.09,1.09,0.15,38.00
9,-0.03,0.96,-0.03,38.00
9,-0.10,0.80,-0.07,38.43
9,-0.10,0.80,0.14,39.15
9,-0.01,1.34,0.14,39.15
9,-0.03,1.31,0.08,38.74
9,-0.03,1.31,-0.06,39.95
9,-0.07,0.69,-0.06,40.12
9,0.08,0.95,0.13,38.56
9,0.08,0.99,0.08,39.12
9,0.04,1.11,0.08,39.85
9,-0.06,0.67,-0.13,39.07
9,-0.06,1.16,0.09,39.24
9,0.01,1.16,0.09,39.52
9,0.01,1.53,0.14,39.52
9,0.00,0.65,-0.09,39.41
9,-0.06,0.65,-0.10,39.99
9,0.06,0.85,0.08,39.99
9,0.00,1.24,0.14,40.34
9,0.07,1.24,0.15,38.43
9,-0.04,0.58,-0.16,38.43
9,-0.01,1.09,0.08,39.24
9,-0.01,1.09,0.27,36.89
9,0.02,1.71,0.27,36.89
9,-0.06,0.66,-0.11,37.81
9,-0.06,0.68,0.06,39.55
9,0.05,0.81,0.06,39.64
9,0.09,1.38,0.18,39.64
9,0.09,0.54,-0.18,38.96
9,-0.05,0.54,-0.18,38.12
9,-0.02,1.04,0.03,38.12
9,-0.02,1.76,0.29,36.97
9,0.03,1.76,0.28,38.76
9,-0.06,0.65,-0.10,38.76
9,-0.03,0.75,0.02,38.47
9,0.03,0.75,0.03,39.65
9,0.10,1.31,0.22,39.65
9,-0.04,0.56,-0.14,40.79
9,-0.04,0.56,-0.01,40.15
9,-0.01,0.93,-0.01,40.15
9,0.03,1.62,0.24,38.38
9,0.03,1.62,-0.06,39.27
9,-0.07,0.81,-0.06,39.42
9,0.06,0.69,-0.01,39.42
9,0.06,0.70,0.17,38.32
9,0.09,1.20,0.17,38.92
9,-0.05,0.73,-0.09,38.92
9,-0.05,0.86,-0.01,40.09
9,-0.05,0.86,-0.01,39.21
9,0.02,1.49,0.20,39.21
9,0.04,1.05,0.03,38.25
9,-0.08,1.05,0.03,36.93
9,0.01,0.66,-0.03,36.93
9,0.09,1.11,0.16,39.50
9,0.09,1.11,-0.04,41.16
9,-0.02,0.97,-0.04,41.16
9,-0.08,0.79,-0.07,38.45
9,-0.08,0.79,0.15,41.20
9,-0.01,1.36,0.15,40.77
9,-0.03,1.29,0.09,39.20
9,-0.03,1.27,-0.06,39.28
9,-0.07,0.64,-0.06,39.11
9,0.11,0.93,0.13,39.89
9,0.11,1.13,0.08,39.39
9,0.06,1.13,0.08,39.75
9,-0.06,0.68,-0.12,39.75
9,-0.05,1.15,0.10,39.29
9,0.01,1.15,0.08,40.03
9,0.00,1.54,0.14,40.03
9,0.01,0.62,-0.10,39.16
9,-0.06,0.62,0.07,38.01
9,0.06,0.84,0.07,38.01
9,0.07,1.29,0.15,40.53
9,0.07,1.29,-0.17,41.89
9,-0.06,0.58,-0.17,41.89
9,0.00,1.10,0.07,38.42
9,0.00,1.07,0.26,38.88
9,0.02,1.70,0.26,39.09
9,-0.07,0.63,-0.12,37.52
9,-0.07,0.83,0.06,38.32
9,0.06,0.83,0.06,41.05
9,0.10,1.39,0.19,41.05
9,0.10,0.54,-0.18,39.72
9,-0.05,0.54,-0.16,38.81
9,-0.02,1.02,0.03,38.81
9,-0.05,1.72,0.28,38.73
9,0.01,1.72,0.27,38.71
9,-0.05,0.68,-0.11,38.71
9,0.05,0.76,0.02,39.76
9,0.05,0.76,0.22,40.33
9,0.10,1.31,0.22,40.33
9,-0.05,0.56,-0.14,40.03
9,-0.05,0.53,-0.02,41.25
9,0.01,0.90,-0.02,40.79
9,0.01,1.60,0.23,40.00
9,0.01,0.78,-0.06,38.36
9,-0.07,0.78,-0.06,41.21
9,0.06,0.71,-0.00,41.21
9,0.06,1.20,0.18,39.61
9,0.10,1.20,0.15,38.80
9,-0.05,0.71,-0.10,38.80
9,-0.04,0.85,-0.03,40.12
9,-0.04,0.85,-0.04,41.65
9,0.03,1.48,0.21,41.65
9,-0.09,1.06,0.03,40.20
9,-0.09,1.06,-0.03,38.69
9,0.02,0.69,-0.03,38.69
9,0.12,1.08,0.14,38.77
9,0.12,1.07,-0.04,39.36
9,-0.01,0.94,-0.04,39.45
9,-0.08,0.78,-0.07,40.24
9,-0.08,0.80,0.15,39.86
9,-0.01,1.37,0.15,40.12
9,-0.02,1.30,0.09,40.12
9,-0.02,0.62,-0.07,39.80
9,-0.06,0.62,-0.07,39.09
9,0.10,0.94,0.13,39.09
9,0.12,1.11,0.07,40.33
9,0.06,1.11,0.11,38.70
9,-0.06,0.67,-0.14,38.70
9,0.01,1.18,0.10,38.53
9,0.01,1.18,0.13,39.47
9,0.02,1.52,0.13,39.47
9,-0.05,0.61,-0.11,40.50
9,-0.05,0.59,0.08,38.81
9,0.06,0.84,0.08,39.05
9,0.07,1.27,0.14,39.05
9,0.07,1.28,-0.18,38.48
9,-0.04,0.59,-0.18,39.02
9,-0.00,1.09,0.07,39.80
9,-0.00,1.69,0.25,39.45
9,0.02,1.69,0.25,40.29
9,-0.05,0.62,-0.12,40.29
9,-0.01,0.82,0.06,39.80
9,0.05,0.82,0.12,39.64
9,0.09,1.42,0.18,39.64
9,0.08,0.55,-0.20,38.32
9,-0.04,0.55,0.02,39.12
9,-0.02,1.02,0.02,39.12
9,0.01,1.71,0.27,37.53
9,0.01,1.71,-0.10,39.67
9,-0.04,0.66,-0.10,39.67
9,0.06,0.78,0.02,40.23
9,0.06,0.79,0.22,40.03
9,0.11,1.29,0.22,39.98
9,-0.04,0.58,-0.14,38.41
9,-0.04,0.91,-0.02,38.71
9,0.01,0.91,-0.02,38.11
9,0.02,1.57,0.22,38.11
9,0.02,0.82,-0.06,39.11
9,-0.06,0.82,-0.06,39.97
9,0.06,0.71,0.00,39.97
9,0.04,1.19,0.17,38.23
9,0.10,1.19,0.16,40.14
9,-0.04,0.73,-0.09,40.14
9,-0.04,0.84,-0.03,39.55
9,-0.04,0.84,0.19,39.31
9,0.02,1.47,0.19,39.31
9,-0.07,1.06,0.02,39.00
10,-0.02,1.30,0.08,39.55
10,0.10,1.34,0.23,41.25
10,0.10,1.33,-0.14,38.02
10,-0.03,0.58,-0.14,37.94
10,0.00,0.89,-0.01,40.29
10,0.00,0.91,0.21,39.38
10,0.03,1.60,0.21,39.39
10,-0.06,0.82,-0.06,40.18
10,-0.06,0.71,-0.01,39.77
10,0.05,0.71,-0.01,39.07
10,0.09,1.18,0.18,39.07
10,0.08,0.75,-0.08,39.91
10,-0.04,0.75,-0.09,39.78
10,-0.04,0.83,-0.02,39.78
10,-0.03,1.45,0.19,40.02
10,0.03,1.45,0.22,40.78
10,-0.07,1.08,0.04,40.78
10,0.00,0.70,-0.03,38.17
10,0.00,0.70,0.15,40.47
10,0.11,1.07,0.15,40.47
10,-0.01,0.97,-0.04,40.29
10,-0.01,0.98,-0.08,37.82
10,-0.08,0.79,-0.08,38.21
10,-0.02,1.34,0.14,39.78
10,-0.02,1.31,0.09,39.73
10,-0.03,1.31,0.09,38.72
10,-0.06,0.67,-0.06,38.72
10,-0.06,0.93,0.13,40.08
10,0.10,0.93,0.13,40.90
10,0.07,1.11,0.07,40.90
10,0.07,0.67,-0.12,42.16
10,-0.05,0.67,-0.10,40.65
10,0.02,1.15,0.09,40.65
10,0.03,1.56,0.14,39.48
10,0.03,1.56,-0.09,37.88
10,-0.04,0.63,-0.09,37.88
10,0.06,0.81,0.08,38.69
10,0.06,0.81,0.16,40.76
10,0.08,1.29,0.16,40.76
10,-0.05,0.59,-0.17,40.03
10,-0.05,0.58,0.07,41.11
10,-0.01,1.08,0.07,40.80
10,0.04,1.71,0.25,39.24
10,0.04,0.63,-0.11,38.47
10,-0.06,0.63,-0.11,38.96
10,0.05,0.83,0.05,38.96
10,0.05,1.40,0.18,38.48
10,0.09,1.40,0.18,39.16
10,-0.06,0.55,-0.18,39.16
10,-0.02,1.04,0.02,41.54
10,-0.02,1.04,0.03,39.61
10,0.02,1.72,0.28,39.61
10,-0.04,0.66,-0.10,38.35
10,-0.04,0.66,0.02,40.32
10,0.05,0.77,0.02,40.32
10,0.11,1.31,0.20,40.28
10,0.11,1.32,-0.15,38.64
10,-0.04,0.57,-0.15,38.62
10,0.01,0.87,-0.02,41.76
10,0.01,0.84,0.23,38.72
10,0.04,1.59,0.23,38.41
10,-0.07,0.81,-0.05,39.20
10,-0.07,0.71,-0.01,37.42
10,0.06,0.71,-0.01,39.47
10,0.10,1.20,0.16,39.47
10,0.08,0.73,-0.08,38.54
10,-0.05,0.73,-0.10,40.99
10,-0.04,0.83,-0.04,40.99
10,-0.03,1.46,0.19,41.14
10,0.03,1.46,0.23,40.51
10,-0.09,1.09,0.04,40.51
10,-0.01,0.71,-0.03,39.64
10,-0.01,0.71,0.14,40.22
10,0.11,1.07,0.14,40.22
10,-0.02,0.95,-0.04,40.00
10,-0.02,0.97,-0.07,41.18
10,-0.08,0.78,-0.07,41.13
10,-0.01,1.34,0.14,38.78
10,-0.01,1.34,0.10,38.35
10,-0.03,1.34,0.10,41.02
10,-0.08,0.66,-0.06,41.02
10,-0.08,0.92,0.12,38.03
10,0.10,0.92,0.12,39.06
10,0.04,1.11,0.08,39.06
10,0.01,0.66,-0.12,40.00
10,-0.05,0.66,-0.10,41.30
10,0.01,1.17,0.09,41.30
10,0.02,1.55,0.14,40.85
10,0.02,1.55,-0.10,39.83
10,-0.06,0.62,-0.10,39.83
10,0.07,0.83,0.07,38.10
10,0.07,0.83,0.15,38.68
10,0.07,1.25,0.15,38.68
10,-0.05,0.60,-0.16,39.23
10,-0.05,0.61,0.06,41.07
10,0.00,1.11,0.06,41.21
10,0.02,1.72,0.26,40.43
10,0.02,0.64,-0.12,39.04
10,-0.07,0.64,-0.12,39.65
10,0.05,0.79,0.05,39.65
10,0.05,1.40,0.18,39.86
10,0.08,1.40,0.18,37.14
10,-0.05,0.56,-0.18,37.14
10,-0.02,1.04,0.01,37.15
10,-0.02,1.04,0.03,40.38
10,0.01,1.72,0.28,40.38
10,-0.05,0.65,-0.11,40.14
10,-0.05,0.65,0.01,39.91
10,0.06,0.75,0.01,39.91
10,0.10,1.31,0.21,38.13
10,0.10,1.27,-0.14,38.45
10,-0.04,0.58,-0.14,38.67
10,0.00,0.91,-0.01,40.24
10,0.00,0.89,0.22,40.04
10,0.02,1.58,0.22,40.59
10,-0.07,0.81,-0.05,38.24
10,-0.07,0.71,-0.01,39.61
10,0.06,0.71,-0.01,37.58
10,0.08,1.18,0.17,37.58
10,0.08,0.75,-0.08,37.10
10,-0.04,0.75,-0.10,41.30
10,-0.03,0.84,-0.04,41.30
10,-0.05,1.48,0.19,41.24
10,0.02,1.48,0.22,40.47
10,-0.09,1.08,0.04,40.47
10,0.01,0.70,-0.03,39.92
10,0.01,0.70,0.16,40.25
10,0.09,1.10,0.16,40.25
10,-0.02,0.97,-0.03,39.68
10,-0.02,0.97,-0.08,40.41
10,-0.08,0.78,-0.08,40.59
10,-0.01,1.34,0.15,38.24
10,-0.01,1.33,0.10,39.72
10,-0.03,1.33,0.10,39.85
10,-0.06,0.68,-0.06,39.85
10,-0.06,0.93,0.13,40.42
10,0.08,0.93,0.13,37.98
10,0.05,1.14,0.08,37.98
10,0.01,0.66,-0.13,38.06
10,-0.05,0.66,-0.16,36.92
10,0.01,1.14,0.09,36.92
10,0.02,1.58,0.15,40.13
10,0.02,1.58,-0.10,40.01
10,-0.05,0.65,-0.10,40.01
10,0.06,0.83,0.09,40.11
10,0.06,0.83,0.15,39.25
10,0.08,1.28,0.15,39.81
10,-0.04,0.57,-0.18,39.03
10,-0.04,0.61,0.07,37.74
10,-0.01,1.11,0.07,37.96
10,0.02,1.72,0.26,38.74
10,0.02,0.66,-0.13,38.28
10,-0.06,0.66,-0.13,39.91
10,0.05,0.81,0.05,39.91
10,0.05,1.37,0.18,40.26
10,0.08,1.37,0.13,36.83
10,-0.06,0.54,-0.18,36.83
10,-0.03,1.05,0.02,38.19
10,-0.03,1.05,0.03,39.90
10,-0.00,1.73,0.28,39.90
10,-0.05,0.69,-0.10,38.02
10,-0.05,0.69,0.02,39.62
10,0.05,0.73,0.02,39.62
10,0.10,1.31,0.20,40.62
10,0.10,1.28,-0.13,40.66
10,-0.06,0.60,-0.13,39.94
10,-0.01,0.91,-0.00,38.38
10,-0.01,0.91,0.24,36.85
10,0.01,1.60,0.24,38.07
10,-0.07,0.82,-0.07,38.07
10,-0.07,0.70,-0.01,37.59
10,0.06,0.70,-0.01,39.80
10,0.08,1.19,0.17,39.80
10,0.09,0.77,-0.08,37.04
10,-0.03,0.77,-0.08,40.01
10,-0.05,0.87,-0.02,40.01
10,-0.05,1.46,0.19,40.37
10,0.01,1.46,0.03,38.30
10,-0.10,1.07,0.03,38.30
10,0.01,0.70,-0.03,39.46
10,0.01,0.70,0.15,37.90
10,0.10,1.09,0.15,37.90
10,-0.01,0.99,-0.03,39.69
10,-0.01,0.97,-0.08,38.36
10,-0.08,0.79,-0.08,38.38
10,-0.02,1.32,0.14,38.38
10,-0.02,1.31,0.10,40.05
10,-0.03,1.31,0.10,40.23
10,-0.05,0.64,-0.05,40.23
10,-0.05,0.96,0.14,38.85
10,0.08,0.96,0.14,41.26
10,0.06,1.15,0.08,41.26
10,0.05,0.65,-0.12,39.23
10,-0.07,0.65,-0.09,38.12
10,-0.00,1.14,0.09,38.12
10,0.03,1.55,0.14,40.74
10,0.03,1.55,-0.09,37.93
10,-0.05,0.65,-0.09,37.93
10,0.06,0.84,0.08,37.18
10,0.06,0.84,0.16,41.46
10,0.07,1.30,0.16,41.94
10,-0.05,0.58,-0.19,40.37
10,-0.05,0.57,0.06,39.83
10,-0.02,1.07,0.06,39.37
11,-0.03,1.05,0.30,39.15
11,0.01,1.73,0.30,39.74
11,-0.05,0.69,-0.08,40.52
11,-0.05,0.77,0.02,38.56
11,0.04,0.77,0.02,37.85
11,0.10,1.26,0.19,37.85
11,0.08,0.57,-0.14,40.98
11,-0.04,0.57,-0.14,40.98
11,0.00,0.90,-0.01,40.98
11,0.01,1.60,0.23,39.86
11,0.01,1.60,0.21,39.05
11,-0.07,0.86,-0.04,39.05
11,0.05,0.70,-0.02,39.87
11,0.05,0.70,0.15,38.41
11,0.09,1.15,0.15,38.41
11,-0.03,0.77,-0.09,41.36
11,-0.03,0.80,-0.02,39.72
11,-0.05,0.86,-0.02,39.73
11,0.01,1.50,0.19,39.73
11,0.01,1.48,0.05,38.34
11,-0.09,1.11,0.05,38.86
11,-0.02,0.69,-0.04,38.86
11,-0.02,1.06,0.15,39.61
11,0.10,1.06,0.15,38.74
11,-0.01,0.97,-0.02,38.74
11,-0.03,0.82,-0.07,38.30
11,-0.09,0.82,-0.11,41.89
11,-0.02,1.34,0.14,41.89
11,-0.01,1.33,0.11,40.76
11,-0.01,1.33,-0.06,38.86
11,-0.07,0.63,-0.06,38.86
11,0.09,0.91,0.13,38.37
11,0.09,0.91,0.09,38.88
11,0.04,1.16,0.09,38.82
11,-0.06,0.67,-0.13,38.82
11,-0.06,0.65,0.09,38.30
11,-0.00,1.15,0.09,37.91
11,0.03,1.55,0.15,39.48
11,0.03,0.61,-0.10,38.41
11,-0.05,0.61,-0.10,39.80
11,0.05,0.84,0.09,39.80
11,0.05,1.30,0.18,39.51
11,0.07,1.30,0.14,39.14
11,-0.05,0.59,-0.17,39.14
11,-0.02,1.10,0.06,37.57
11,-0.02,1.10,0.05,38.62
11,0.02,1.70,0.24,38.62
11,-0.06,0.65,-0.13,40.28
11,-0.06,0.65,0.06,39.46
11,0.03,0.82,0.06,39.46
11,0.09,1.41,0.19,37.96
11,0.09,1.41,-0.18,38.08
11,-0.07,0.54,-0.18,37.88
11,-0.02,1.00,-0.01,39.45
11,-0.02,0.97,0.28,38.41
11,0.01,1.72,0.28,38.60
11,-0.05,0.69,-0.10,38.60
11,-0.05,0.75,0.02,38.90
11,0.05,0.75,0.02,38.92
11,0.10,1.32,0.21,38.92
11,0.08,0.56,-0.14,38.67
11,-0.04,0.56,-0.15,38.20
11,0.01,0.90,-0.03,38.20
11,0.02,1.59,0.23,39.70
11,0.02,1.59,0.22,38.23
11,-0.08,0.87,-0.03,38.23
11,0.04,0.72,-0.01,40.09
11,0.04,0.72,0.16,38.84
11,0.08,1.15,0.16,38.84
11,-0.04,0.74,-0.07,40.14
11,-0.04,0.72,-0.03,38.47
11,-0.05,0.84,-0.03,39.01
11,0.02,1.46,0.19,37.44
11,0.02,1.45,0.06,40.42
11,-0.10,1.14,0.06,38.65
11,-0.02,0.70,-0.03,38.65
11,-0.02,1.07,0.15,40.19
11,0.09,1.07,0.15,39.22
11,-0.03,0.97,-0.02,39.22
11,-0.02,0.79,-0.08,39.56
11,-0.09,0.79,-0.10,39.66
11,-0.00,1.35,0.15,39.66
11,-0.03,1.35,0.13,39.79
11,-0.03,1.35,-0.07,39.24
11,-0.07,0.65,-0.07,39.24
11,0.10,0.89,0.12,41.04
11,0.10,0.89,0.08,39.67
11,0.04,1.14,0.08,39.67
11,-0.06,0.66,-0.12,39.70
11,-0.06,0.65,0.12,39.86
11,0.00,1.15,0.12,39.26
11,0.02,1.57,0.15,40.83
11,0.02,0.61,-0.10,39.97
11,-0.06,0.61,-0.10,39.68
11,0.06,0.82,0.07,39.68
11,0.06,1.31,0.18,42.87
11,0.07,1.31,0.13,40.74
11,-0.05,0.58,-0.18,40.74
11,-0.02,1.12,0.07,37.97
11,-0.02,1.12,0.12,39.69
11,0.02,1.73,0.25,39.69
11,-0.07,0.60,-0.13,39.95
11,-0.07,0.60,0.06,39.23
11,0.05,0.82,0.06,39.23
11,0.09,1.40,0.20,40.79
11,0.09,1.42,-0.17,39.72
11,-0.06,0.55,-0.17,39.78
11,-0.03,1.03,0.01,39.78
11,-0.03,1.00,0.28,39.91
11,0.02,1.69,0.28,40.19
11,-0.05,0.67,-0.09,39.41
11,-0.05,0.74,0.03,37.75
11,0.05,0.74,0.03,38.88
11,0.10,1.33,0.21,38.88
11,0.08,0.60,-0.14,38.96
11,-0.05,0.60,-0.15,39.24
11,-0.00,0.88,-0.02,39.24
11,-0.05,1.57,0.22,41.08
11,0.02,1.57,0.20,39.72
11,-0.08,0.84,-0.05,39.72
11,0.04,0.72,-0.01,39.18
11,0.04,0.72,0.18,38.15
11,0.10,1.20,0.18,38.15
11,-0.02,0.77,-0.07,40.00
11,-0.02,0.77,-0.04,38.71
11,-0.04,0.83,-0.04,38.74
11,0.01,1.44,0.19,38.74
11,0.01,1.38,0.05,38.42
11,-0.10,1.13,0.05,39.79
11,-0.01,0.72,-0.02,39.79
11,-0.01,1.06,0.16,42.74
11,0.10,1.06,0.16,40.75
11,-0.00,0.98,-0.02,40.75
11,-0.01,0.77,-0.09,37.60
11,-0.08,0.77,-0.10,39.32
11,-0.01,1.30,0.15,39.32
11,-0.02,1.35,0.12,39.43
11,-0.02,1.35,-0.06,38.07
11,-0.06,0.66,-0.06,38.07
11,0.10,0.90,0.12,40.44
11,0.10,0.90,0.07,39.08
11,0.04,1.15,0.07,39.08
11,-0.06,0.63,-0.13,38.71
11,-0.06,0.65,0.10,39.15
11,-0.01,1.15,0.10,39.22
11,0.02,1.56,0.18,38.44
11,0.02,0.63,-0.10,36.93
11,-0.05,0.63,-0.10,38.77
11,0.07,0.83,0.08,38.77
11,0.07,1.29,0.16,39.10
11,0.08,1.29,0.16,39.53
11,-0.05,0.59,-0.17,39.53
11,-0.02,1.08,0.05,39.53
11,-0.02,1.08,0.06,39.36
11,0.03,1.72,0.25,39.36
11,-0.06,0.64,-0.11,38.97
11,-0.06,0.64,0.04,38.35
11,0.05,0.79,0.04,38.35
11,0.09,1.38,0.19,38.41
11,0.09,1.38,-0.18,37.74
11,-0.05,0.53,-0.18,38.16
11,-0.03,1.03,0.01,40.51
11,-0.03,1.02,0.28,39.41
11,0.02,1.70,0.28,39.21
11,-0.03,0.67,-0.10,39.99
11,-0.03,0.74,0.01,39.09
11,0.06,0.74,0.01,38.75
11,0.11,1.28,0.19,38.75
11,0.11,0.59,-0.13,40.80
11,-0.04,0.59,-0.14,40.00
11,0.00,0.88,-0.02,40.00
11,0.01,1.54,0.22,38.08
11,0.01,1.54,0.19,42.42
11,-0.06,0.86,-0.06,42.42
11,0.05,0.70,-0.02,38.85
11,0.05,0.70,0.16,40.90
11,0.10,1.17,0.16,40.90
11,-0.02,0.79,-0.06,38.72
11,-0.02,0.76,-0.04,39.91
11,-0.04,0.83,-0.04,40.21
11,0.01,1.42,0.17,40.21
11,0.01,1.44,0.05,40.41
11,-0.08,1.12,0.05,39.65
11,-0.02,0.70,-0.05,39.65
11,-0.02,1.08,0.15,40.51
11,0.09,1.08,0.15,37.85
11,0.00,0.98,-0.02,37.85
11,0.05,0.78,-0.08,39.30
11,-0.07,0.78,-0.11,39.57
11,-0.00,1.27,0.14,39.57
11,-0.02,1.34,0.12,41.25
11,-0.02,1.34,-0.07,38.59
11,-0.07,0.67,-0.07,38.59
11,0.09,0.90,0.13,38.99
11,0.09,0.90,0.08,39.51
11,0.04,1.18,0.08,39.51
11,-0.04,0.65,-0.12,39.68
11,-0.04,0.66,0.09,40.39
11,0.00,1.10,0.09,39.89
11,0.03,1.56,0.16,40.67
11,0.03,0.63,-0.07,42.05
11,-0.05,0.63,-0.07,39.65
11,0.05,0.82,0.06,39.65
11,0.05,1.30,0.18,38.52
11,0.09,1.30,0.18,38.97
11,-0.04,0.58,-0.19,38.97
11,-0.02,1.09,0.05,38.93
11,-0.02,1.09,0.04,40.22
11,0.04,1.72,0.23,40.22
11,-0.05,0.65,-0.12,39.94
11,-0.05,0.65,0.05,39.73
11,0.05,0.79,0.05,39.73
11,0.11,1.37,0.20,37.30
11,0.11,1.37,-0.18,37.57
11,-0.05,0.53,-0.18,37.84
11,-0.02,1.01,0.00,38.62
11,-0.02,1.06,0.28,36.40
11,0.02,1.69,0.28,36.67
11,-0.03,0.70,-0.09,40.59
11,-0.03,0.71,0.02,40.15
11,0.05,0.71,0.02,38.73
11,0.10,1.30,0.20,38.73
11,0.10,0.59,-0.14,37.47
11,-0.04,0.59,-0.14,40.16
11,-0.01,0.88,-0.02,40.16
11,-0.04,1.56,0.22,37.53
11,0.02,1.56,0.21,37.67
11,-0.06,0.86,-0.04,37.67
11,0.06,0.70,-0.01,39.17
11,0.06,0.70,0.16,39.05
11,0.09,1.17,0.16,39.05
11,-0.01,0.78,-0.08,38.40
11,-0.01,0.78,-0.05,37.90
12,-0.08,0.75,-0.08,40.62
12,-0.08,0.75,0.14,39.84
12,-0.00,1.28,0.14,39.84
12,0.00,1.38,0.13,42.30
12,0.00,1.39,-0.08,40.91
12,-0.06,0.64,-0.08,40.92
12,0.09,0.90,0.11,39.35
12,0.09,0.91,0.07,37.71
12,0.06,1.16,0.07,40.07
12,-0.05,0.63,-0.13,40.07
12,-0.05,1.12,0.10,38.86
12,0.02,1.12,0.10,39.33
12,0.03,1.57,0.17,39.33
12,0.06,0.62,-0.10,38.60
12,-0.06,0.62,-0.12,37.79
12,0.06,0.81,0.07,37.79
12,0.03,1.32,0.18,39.21
12,0.09,1.32,-0.18,40.71
12,-0.04,0.58,-0.18,40.71
12,-0.01,1.07,0.05,39.50
12,-0.01,1.07,0.23,39.24
12,0.03,1.73,0.23,39.24
12,-0.06,0.63,-0.13,40.12
12,-0.06,0.68,0.06,39.61
12,0.05,0.80,0.06,39.77
12,0.10,1.38,0.21,38.99
12,0.10,0.53,-0.18,40.34
12,-0.06,0.53,-0.18,39.20
12,-0.01,1.02,-0.00,39.20
12,-0.01,1.67,0.26,37.20
12,0.02,1.67,0.28,38.76
12,-0.04,0.68,-0.10,38.76
12,-0.06,0.75,0.01,38.70
12,0.06,0.75,0.01,38.06
12,0.11,1.29,0.20,38.06
12,-0.04,0.61,-0.13,39.79
12,-0.04,0.61,-0.03,38.97
12,-0.00,0.87,-0.03,38.97
12,0.03,1.55,0.21,39.31
12,0.03,1.55,-0.04,37.97
12,-0.07,0.86,-0.04,38.22
12,0.06,0.69,-0.00,38.22
12,0.06,0.74,0.17,38.57
12,0.10,1.18,0.17,38.63
12,-0.02,0.79,-0.07,38.63
12,-0.02,0.83,-0.05,38.92
12,-0.04,0.83,-0.05,39.97
12,0.02,1.44,0.17,39.97
12,0.04,1.14,0.05,39.65
12,-0.09,1.14,0.02,38.01
12,-0.03,0.69,-0.04,38.01
12,-0.01,1.06,0.13,40.87
12,0.11,1.06,-0.02,39.83
12,0.01,0.97,-0.02,39.83
12,-0.07,0.77,-0.09,41.78
12,-0.07,0.77,0.13,40.81
12,0.01,1.27,0.13,40.81
12,-0.03,1.38,0.14,38.98
12,-0.03,1.39,-0.07,39.52
12,-0.06,0.64,-0.07,39.46
12,0.10,0.90,0.10,39.46
12,0.10,1.18,0.07,40.08
12,0.04,1.18,0.07,39.68
12,-0.06,0.61,-0.14,39.68
12,-0.06,1.11,0.09,39.08
12,0.01,1.11,0.09,40.34
12,0.03,1.59,0.18,40.34
12,0.02,0.61,-0.10,39.28
12,-0.05,0.61,-0.12,40.35
12,0.07,0.83,0.07,40.35
12,0.08,1.30,0.18,41.40
12,0.08,1.30,-0.17,38.89
12,-0.05,0.58,-0.17,38.89
12,-0.00,1.08,0.05,38.59
12,-0.00,1.08,0.23,39.03
12,0.03,1.72,0.23,38.68
12,-0.06,0.67,-0.13,39.46
12,-0.06,0.69,0.06,38.24
12,0.05,0.81,0.06,38.14
12,0.09,1.36,0.21,40.49
12,0.09,0.54,-0.17,41.85
12,-0.06,0.54,-0.17,41.76
12,-0.01,0.99,-0.01,41.76
12,-0.01,1.69,0.27,39.07
12,0.00,1.69,0.27,39.36
12,-0.04,0.72,-0.10,39.36
12,-0.06,0.73,0.01,39.77
12,0.07,0.73,0.01,39.02
12,0.11,1.27,0.20,39.02
12,-0.04,0.59,-0.13,39.63
12,-0.04,0.59,-0.02,41.09
12,0.01,0.88,-0.02,41.09
12,0.01,1.54,0.22,41.08
12,0.01,1.51,-0.05,40.20
12,-0.08,0.88,-0.05,39.98
12,0.07,0.70,-0.01,38.42
12,0.07,0.71,0.16,40.88
12,0.09,1.14,0.16,36.87
12,-0.01,0.81,-0.05,36.87
12,-0.01,0.85,-0.05,39.53
12,-0.04,0.85,-0.05,38.60
12,0.00,1.42,0.17,38.60
12,0.03,1.16,0.05,37.43
12,-0.10,1.16,0.01,40.90
12,-0.04,0.66,-0.06,40.90
12,-0.03,1.06,0.16,39.43
12,0.10,1.06,-0.00,38.16
12,0.00,1.00,-0.00,38.16
12,-0.05,0.76,-0.09,37.97
12,-0.05,0.76,0.14,39.35
12,-0.00,1.27,0.14,39.35
12,-0.03,1.36,0.13,40.12
12,-0.03,1.32,-0.08,42.01
12,-0.05,0.63,-0.08,41.48
12,0.09,0.89,0.11,40.70
12,0.09,1.21,0.07,38.01
12,0.04,1.21,0.07,38.37
12,-0.04,0.63,-0.14,38.37
12,-0.04,1.10,0.09,39.34
12,-0.00,1.10,0.09,39.10
12,0.03,1.58,0.17,39.10
12,0.02,0.63,-0.09,39.46
12,-0.05,0.63,-0.11,39.72
12,0.06,0.82,0.08,39.72
12,0.08,1.34,0.19,41.81
12,0.08,1.34,-0.18,41.05
12,-0.05,0.57,-0.18,41.05
12,-0.02,1.07,0.05,39.55
12,-0.02,1.10,0.23,39.94
12,0.03,1.73,0.23,39.93
12,-0.06,0.64,-0.12,39.14
12,-0.06,0.65,0.07,42.97
12,0.04,0.84,0.07,42.52
12,0.08,1.37,0.21,40.17
12,0.08,0.54,-0.18,36.93
12,-0.06,0.54,-0.18,38.57
12,-0.01,0.99,-0.01,38.57
12,-0.05,1.67,0.25,39.56
12,0.02,1.67,0.22,40.49
12,-0.03,0.73,-0.09,40.49
12,-0.00,0.75,0.02,39.68
12,0.06,0.75,0.01,41.43
12,0.10,1.27,0.19,41.43
12,-0.05,0.62,-0.13,40.97
12,-0.05,0.62,-0.02,39.26
12,-0.01,0.86,-0.02,39.26
12,0.01,1.55,0.22,40.75
12,0.01,1.52,-0.04,39.72
12,-0.06,0.89,-0.04,39.41
12,0.05,0.73,-0.00,38.62
12,0.05,0.72,0.15,39.11
12,0.09,1.16,0.15,40.29
12,-0.01,0.79,-0.07,40.29
12,-0.01,0.85,-0.06,40.11
12,-0.04,0.85,-0.06,41.74
12,0.01,1.44,0.17,41.74
12,0.03,1.18,0.05,42.15
12,-0.09,1.18,0.01,41.11
12,-0.04,0.69,-0.05,41.11
12,0.10,1.02,0.15,38.56
12,0.10,1.02,-0.01,40.25
12,0.02,1.00,-0.01,40.25
12,-0.07,0.76,-0.09,38.49
12,-0.07,0.76,0.13,38.23
12,-0.02,1.27,0.13,38.06
12,-0.02,1.41,0.14,39.63
12,-0.02,1.38,-0.08,40.86
12,-0.06,0.63,-0.08,41.02
12,0.09,0.88,0.11,37.89
12,0.09,1.22,0.07,39.12
12,0.05,1.22,0.07,40.90
12,-0.06,0.63,-0.13,40.90
12,-0.06,1.13,0.10,39.90
12,0.00,1.13,0.10,38.18
12,0.03,1.58,0.18,38.18
12,0.01,0.61,-0.11,38.86
12,-0.05,0.61,-0.11,39.15
12,0.06,0.82,0.08,39.15
12,0.09,1.35,0.19,40.03
12,0.09,1.35,-0.17,40.85
12,-0.06,0.61,-0.17,40.85
12,-0.03,1.06,0.04,40.41
12,-0.03,1.04,0.22,40.73
12,0.02,1.73,0.22,40.98
12,-0.06,0.62,-0.12,38.63
12,-0.06,0.56,0.07,38.61
12,0.03,0.81,0.07,38.58
12,0.09,1.39,0.22,40.15
12,0.09,0.55,-0.17,39.68
12,-0.08,0.55,-0.17,38.00
12,-0.02,0.98,-0.01,38.00
12,-0.03,1.67,0.25,40.35
12,0.03,1.67,0.28,38.94
12,-0.04,0.70,-0.10,38.94
12,-0.01,0.77,0.02,39.50
12,0.05,0.77,0.01,38.79
12,0.09,1.29,0.20,38.79
12,-0.06,0.61,-0.13,39.03
12,-0.06,0.61,-0.03,39.49
12,-0.01,0.85,-0.03,39.49
12,0.03,1.53,0.22,40.15
12,0.03,1.54,-0.03,41.77
12,-0.06,0.92,-0.03,41.64
12,0.04,0.72,0.01,40.86
12,0.04,0.71,0.15,40.59
12,0.09,1.15,0.15,38.79
12,-0.02,0.81,-0.06,38.79
12,-0.02,0.81,-0.06,39.90
12,-0.06,0.81,-0.06,39.72
12,0.01,1.45,0.17,39.72
12,0.03,1.19,0.07,38.39
12,-0.09,1.19,0.06,38.73
12,-0.04,0.72,-0.06,38.73
12,-0.03,1.03,0.12,39.04
12,0.10,1.03,-0.01,39.29
12,0.00,0.97,-0.01,39.29
12,-0.08,0.76,-0.09,40.02
12,-0.08,0.76,0.12,39.17
12,-0.01,1.29,0.12,39.17
12,-0.02,1.42,0.16,38.43
12,-0.02,1.41,-0.07,37.94
12,-0.08,0.66,-0.07,37.56
12,0.09,0.84,0.10,39.91
12,0.09,1.18,0.06,39.93
12,0.04,1.18,0.06,40.93
12,-0.07,0.61,-0.12,40.93
12,-0.07,1.14,0.10,39.13
12,0.01,1.14,0.08,38.15
12,0.03,1.63,0.21,38.15
12,0.00,0.61,-0.10,39.20
12,-0.06,0.61,-0.11,39.63
12,0.06,0.80,0.07,39.63
12,0.09,1.33,0.17,38.44
13,0.09,1.35,0.21,37.90
13,0.07,0.56,-0.16,38.09
13,-0.06,0.56,-0.13,38.81
13,-0.01,0.99,-0.01,38.81
13,0.02,1.68,0.25,40.82
13,0.02,1.68,-0.10,39.31
13,-0.04,0.69,-0.10,39.31
13,0.06,0.72,0.00,39.52
13,0.06,0.73,0.20,38.76
13,0.10,1.29,0.20,38.94
13,-0.05,0.64,-0.13,38.94
13,-0.05,0.68,-0.04,39.63
13,-0.01,0.87,-0.04,39.68
13,0.01,1.55,0.22,38.90
13,0.01,0.88,-0.04,37.59
13,-0.08,0.88,-0.04,39.98
13,0.04,0.73,-0.01,39.98
13,0.03,1.16,0.17,37.59
13,0.09,1.16,0.16,39.50
13,-0.02,0.86,-0.03,39.50
13,-0.01,0.84,-0.06,39.35
13,-0.07,0.84,-0.08,39.88
13,0.01,1.40,0.17,39.88
13,-0.09,1.19,0.05,40.97
13,-0.09,1.19,-0.04,39.38
13,-0.05,0.70,-0.04,39.38
13,0.10,1.06,0.15,40.29
13,0.10,1.02,-0.00,39.48
13,0.00,1.02,-0.00,39.83
13,-0.06,0.73,-0.09,41.40
13,-0.06,0.70,0.12,37.53
13,0.00,1.26,0.12,40.72
13,-0.03,1.42,0.16,40.72
13,-0.03,0.65,-0.07,40.42
13,-0.07,0.65,-0.07,38.31
13,0.09,0.88,0.10,38.31
13,0.09,1.20,0.07,38.55
13,0.03,1.20,0.11,37.27
13,-0.06,0.61,-0.14,37.27
13,-0.01,1.13,0.10,40.03
13,-0.01,1.13,0.22,38.41
13,0.02,1.62,0.22,38.41
13,-0.06,0.65,-0.09,40.41
13,-0.06,0.65,0.08,37.86
13,0.06,0.80,0.08,37.86
13,0.08,1.32,0.18,36.34
13,0.08,1.31,-0.17,38.55
13,-0.05,0.56,-0.17,38.47
13,-0.02,1.10,0.06,40.82
13,-0.02,1.77,0.24,41.62
13,0.02,1.77,0.24,40.94
13,-0.07,0.63,-0.13,40.94
13,-0.07,0.79,0.06,41.60
13,0.04,0.79,0.04,41.52
13,0.09,1.38,0.22,41.52
13,0.11,0.53,-0.17,39.42
13,-0.08,0.53,-0.18,38.40
13,-0.03,1.03,0.01,38.40
13,0.01,1.69,0.27,38.82
13,0.01,1.69,-0.09,40.91
13,-0.04,0.72,-0.09,40.91
13,0.07,0.72,0.01,39.64
13,0.07,0.70,0.19,38.72
13,0.10,1.26,0.19,38.51
13,-0.06,0.64,-0.13,39.29
13,-0.06,0.63,-0.03,39.59
13,-0.02,0.88,-0.03,39.42
13,0.01,1.56,0.23,38.64
13,0.01,0.89,-0.03,40.21
13,-0.08,0.89,-0.03,38.85
13,0.05,0.69,-0.01,38.85
13,0.03,1.15,0.16,40.72
13,0.10,1.15,0.14,38.12
13,-0.02,0.84,-0.04,38.12
13,-0.05,0.83,-0.06,39.60
13,-0.05,0.83,-0.03,38.57
13,0.00,1.43,0.16,38.57
13,-0.09,1.18,0.05,38.00
13,-0.09,1.18,-0.05,39.53
13,-0.03,0.69,-0.05,39.53
13,0.10,1.04,0.15,41.13
13,0.10,1.02,0.02,39.42
13,0.02,1.02,0.02,39.62
13,-0.08,0.75,-0.09,39.62
13,-0.08,0.75,0.13,39.68
13,-0.01,1.25,0.13,40.19
13,-0.02,1.41,0.16,40.19
13,-0.02,0.65,-0.07,38.79
13,-0.06,0.65,-0.07,38.95
13,0.08,0.89,0.10,38.95
13,0.11,1.23,0.07,39.49
13,0.05,1.23,0.12,39.45
13,-0.06,0.61,-0.13,39.45
13,-0.01,1.11,0.09,39.89
13,-0.01,1.11,0.20,39.77
13,0.02,1.60,0.20,39.77
13,-0.05,0.62,-0.10,39.98
13,-0.05,0.62,0.09,38.20
13,0.05,0.83,0.09,38.20
13,0.08,1.33,0.18,38.70
13,0.08,1.32,-0.18,39.21
13,-0.06,0.57,-0.18,39.57
13,-0.02,1.07,0.07,41.14
13,-0.02,1.73,0.24,39.87
13,0.02,1.73,0.24,39.64
13,-0.06,0.67,-0.13,39.64
13,-0.06,0.82,0.06,42.28
13,0.03,0.82,0.06,40.03
13,0.09,1.35,0.22,40.03
13,0.06,0.54,-0.17,38.29
13,-0.06,0.54,-0.13,40.19
13,-0.03,1.00,-0.00,40.19
13,0.02,1.68,0.26,39.88
13,0.02,1.68,-0.08,40.53
13,-0.03,0.71,-0.08,40.53
13,0.06,0.73,0.02,39.97
13,0.06,0.74,0.18,37.77
13,0.10,1.24,0.18,38.30
13,-0.06,0.60,-0.13,40.65
13,-0.06,0.57,-0.02,39.81
13,-0.02,0.88,-0.02,39.71
13,0.02,1.55,0.21,39.71
13,0.02,0.92,-0.03,39.24
13,-0.06,0.92,-0.03,40.51
13,0.06,0.69,-0.01,40.51
13,0.04,1.11,0.15,39.52
13,0.10,1.11,0.15,39.99
13,-0.02,0.83,-0.04,39.99
13,-0.00,0.84,-0.06,41.34
13,-0.07,0.84,-0.01,40.02
13,0.01,1.42,0.18,40.02
13,-0.07,1.21,0.06,38.10
13,-0.07,1.21,-0.06,39.22
13,-0.03,0.67,-0.06,39.22
13,0.09,1.02,0.13,38.39
13,0.09,1.01,0.00,38.73
13,0.02,1.01,0.00,38.59
13,-0.08,0.76,-0.09,39.38
13,-0.08,0.75,0.13,39.61
13,0.00,1.25,0.13,39.09
13,-0.00,1.41,0.16,39.09
13,-0.00,0.63,-0.09,41.62
13,-0.05,0.63,-0.09,38.57
13,0.08,0.85,0.09,38.57
13,0.11,1.23,0.07,37.58
13,0.04,1.23,0.12,38.45
13,-0.05,0.62,-0.13,38.45
13,-0.06,1.10,0.10,39.76
13,0.00,1.10,0.20,39.27
13,0.04,1.62,0.20,39.27
13,-0.06,0.63,-0.10,41.35
13,-0.06,0.63,0.08,41.10
13,0.04,0.80,0.08,40.92
13,0.08,1.36,0.19,37.79
13,0.08,1.32,-0.16,38.46
13,-0.05,0.57,-0.16,38.51
13,-0.02,1.07,0.04,39.29
13,-0.02,1.72,0.23,38.54
13,0.04,1.72,0.23,38.53
13,-0.05,0.64,-0.13,38.53
13,-0.05,0.82,0.05,37.98
13,0.03,0.82,0.05,37.78
13,0.09,1.35,0.24,37.78
13,0.07,0.54,-0.17,39.66
13,-0.06,0.54,-0.18,39.72
13,-0.02,0.98,0.00,39.72
13,0.02,1.66,0.25,40.38
13,0.02,1.66,-0.08,38.57
13,-0.03,0.74,-0.08,38.57
13,0.05,0.71,0.01,38.24
13,0.05,0.70,0.19,39.10
13,0.10,1.26,0.19,38.44
13,-0.05,0.62,-0.12,40.01
13,-0.05,0.61,-0.02,40.11
13,-0.02,0.86,-0.02,40.32
13,0.02,1.54,0.21,41.11
13,0.02,0.91,-0.02,38.99
13,-0.07,0.91,-0.02,39.60
13,0.04,0.71,-0.00,39.60
13,0.04,1.15,0.16,39.04
13,0.09,1.15,0.15,38.64
13,-0.01,0.82,-0.03,38.64
13,-0.01,0.83,-0.06,38.27
13,-0.07,0.83,-0.02,38.65
13,0.02,1.41,0.16,38.65
13,-0.07,1.21,0.05,40.54
13,-0.07,1.21,-0.05,38.65
13,-0.05,0.67,-0.05,38.65
13,0.11,1.03,0.12,37.12
13,0.11,1.03,-0.00,38.44
13,0.03,1.03,-0.00,38.79
13,-0.06,0.74,-0.09,41.14
13,-0.06,0.74,0.13,37.96
13,0.01,1.24,0.13,37.95
13,-0.01,1.45,0.17,41.08
13,-0.01,0.61,-0.09,41.30
13,-0.08,0.61,-0.09,40.05
13,0.08,0.87,0.08,40.05
13,0.11,1.23,0.06,41.02
13,0.05,1.23,0.05,38.54
13,-0.06,0.61,-0.14,38.54
13,-0.05,1.13,0.10,39.52
13,0.01,1.13,0.08,41.76
13,0.04,1.61,0.21,41.76
13,-0.04,0.63,-0.11,39.58
13,-0.04,0.63,0.07,38.44
13,0.05,0.80,0.07,38.44
13,0.08,1.36,0.18,40.46
13,0.08,1.34,-0.17,39.00
13,-0.06,0.59,-0.17,38.33
13,-0.01,1.07,0.05,39.12
13,-0.01,1.12,0.23,37.22
13,0.03,1.75,0.23,42.40
13,-0.06,0.64,-0.12,42.40
13,-0.06,0.79,0.05,39.64
13,0.04,0.79,0.05,41.59
13,0.08,1.37,0.23,41.59
13,0.12,0.54,-0.16,39.05
13,-0.07,0.54,-0.18,39.28
13,-0.01,0.99,0.00,39.28
13,-0.03,1.64,0.24,42.59
13,0.03,1.64,-0.10,37.58
13,-0.05,0.70,-0.10,37.58
13,0.06,0.72,0.02,40.28
13,0.06,0.72,0.19,40.38
13,0.10,1.26,0.19,40.38
13,-0.06,0.63,-0.11,38.52
13,-0.06,0.66,-0.03,39.31
13,-0.01,0.85,-0.03,39.48
13,0.03,1.52,0.20,41.05
13,0.03,0.92,-0.02,39.76
13,-0.07,0.92,-0.02,37.48
13,0.05,0.70,-0.01,37.48
14,-0.05,0.68,-0.06,40.60
14,0.11,1.03,0.13,39.82
14,0.11,0.99,0.01,39.76
14,0.03,0.99,0.01,38.01
14,-0.05,0.73,-0.10,38.01
14,-0.04,1.23,0.13,39.89
14,0.02,1.23,0.16,40.05
14,-0.01,1.43,0.16,40.05
14,-0.05,0.62,-0.09,37.63
14,-0.05,0.62,0.09,39.94
14,0.10,0.86,0.09,39.94
14,0.05,1.22,0.06,41.23
14,0.05,1.22,-0.14,40.76
14,-0.05,0.60,-0.14,40.76
14,0.00,1.11,0.09,39.78
14,0.00,1.12,0.22,37.08
14,0.03,1.62,0.22,36.92
14,-0.04,0.62,-0.11,38.49
14,-0.04,0.81,0.07,38.27
14,0.06,0.81,0.07,37.38
14,0.08,1.33,0.19,37.38
14,0.08,0.58,-0.18,39.56
14,-0.05,0.58,-0.18,39.21
14,-0.02,1.08,0.04,39.21
14,-0.03,1.72,0.23,37.54
14,0.03,1.72,0.25,39.81
14,-0.05,0.63,-0.13,39.81
14,0.05,0.79,0.06,39.14
14,0.05,0.79,0.22,39.48
14,0.09,1.33,0.22,39.48
14,-0.06,0.55,-0.16,39.85
14,-0.06,0.55,0.00,39.91
14,-0.00,0.96,0.00,40.10
14,0.02,1.64,0.25,42.45
14,0.02,1.68,-0.08,39.13
14,-0.03,0.74,-0.08,39.22
14,0.08,0.72,0.00,38.43
14,0.08,1.25,0.19,39.22
14,0.10,1.25,0.19,40.65
14,-0.06,0.62,-0.13,40.65
14,-0.00,0.86,-0.02,40.28
14,-0.00,0.86,-0.04,39.88
14,0.02,1.53,0.21,39.88
14,0.06,0.92,-0.03,41.81
14,-0.07,0.92,-0.01,41.14
14,0.06,0.72,-0.01,41.14
14,0.10,1.12,0.15,40.14
14,0.10,1.12,-0.04,38.86
14,-0.01,0.85,-0.04,38.86
14,-0.04,0.83,-0.06,39.57
14,-0.04,0.84,0.17,39.83
14,0.00,1.41,0.17,39.36
14,-0.08,1.21,0.05,37.79
14,-0.08,1.25,-0.06,40.39
14,-0.04,0.69,-0.06,40.06
14,0.09,1.02,0.12,40.06
14,0.09,1.03,0.01,40.62
14,0.04,1.03,0.01,40.28
14,-0.06,0.74,-0.10,40.28
14,-0.06,1.24,0.12,40.26
14,0.01,1.24,0.10,38.84
14,-0.01,1.43,0.16,38.84
14,-0.06,0.64,-0.09,40.19
14,-0.06,0.64,0.08,39.72
14,0.08,0.85,0.08,39.72
14,0.06,1.22,0.06,39.67
14,0.06,1.22,-0.14,39.27
14,-0.04,0.62,-0.14,39.27
14,0.00,1.10,0.09,38.10
14,0.00,1.12,0.22,39.20
14,0.03,1.62,0.22,39.22
14,-0.05,0.63,-0.10,37.65
14,-0.05,0.79,0.09,38.98
14,0.06,0.79,0.09,39.18
14,0.09,1.37,0.20,39.18
14,0.09,0.59,-0.17,41.28
14,-0.03,0.59,-0.15,39.26
14,-0.03,1.08,0.04,39.26
14,-0.04,1.72,0.23,37.68
14,0.02,1.72,0.24,38.48
14,-0.05,0.64,-0.14,38.48
14,0.05,0.78,0.05,38.06
14,0.05,0.78,0.23,39.75
14,0.09,1.35,0.23,39.75
14,-0.05,0.57,-0.17,40.37
14,-0.05,0.61,-0.01,36.97
14,-0.03,0.98,-0.01,36.78
14,0.02,1.63,0.25,39.13
14,0.02,1.67,-0.10,39.60
14,-0.02,0.73,-0.10,39.87
14,0.07,0.70,0.01,38.30
14,0.07,1.27,0.19,37.98
14,0.10,1.27,0.19,39.50
14,-0.05,0.67,-0.12,39.50
14,-0.03,0.85,-0.03,40.22
14,-0.03,0.85,-0.05,40.40
14,0.03,1.51,0.20,40.40
14,0.06,0.95,-0.03,41.41
14,-0.07,0.95,-0.06,39.80
14,0.05,0.71,0.00,39.80
14,0.09,1.15,0.17,39.65
14,0.09,1.15,-0.04,40.83
14,-0.00,0.86,-0.04,40.83
14,-0.06,0.83,-0.06,38.98
14,-0.06,0.82,0.16,40.09
14,0.01,1.38,0.16,40.63
14,-0.07,1.20,0.05,39.85
14,-0.07,1.20,-0.05,38.53
14,-0.05,0.70,-0.05,40.79
14,0.10,1.02,0.13,40.79
14,0.10,1.04,0.01,39.00
14,0.03,1.04,0.01,37.38
14,-0.06,0.72,-0.11,37.38
14,-0.12,1.21,0.12,38.98
14,0.01,1.21,0.11,39.79
14,-0.00,1.47,0.17,39.79
14,-0.06,0.65,-0.08,39.50
14,-0.06,0.65,0.08,37.70
14,0.07,0.85,0.08,37.70
14,0.05,1.23,0.06,39.66
14,0.05,1.23,-0.14,37.94
14,-0.05,0.59,-0.14,37.78
14,-0.00,1.12,0.09,38.56
14,-0.00,1.06,0.22,40.01
14,0.03,1.62,0.22,40.30
14,-0.05,0.65,-0.10,38.74
14,-0.05,0.81,0.07,41.29
14,0.04,0.81,0.07,38.30
14,0.08,1.34,0.19,38.30
14,0.08,0.56,-0.17,39.75
14,-0.05,0.56,-0.15,39.51
14,-0.03,1.09,0.04,39.51
14,-0.03,1.73,0.23,39.62
14,0.03,1.73,0.19,38.54
14,-0.07,0.66,-0.12,38.54
14,0.04,0.78,0.05,37.00
14,0.04,0.78,0.23,39.53
14,0.09,1.36,0.23,39.53
14,-0.06,0.56,-0.16,39.11
14,-0.06,0.56,-0.00,40.74
14,-0.02,0.99,-0.00,40.86
14,0.03,1.66,0.25,40.86
14,0.03,1.68,-0.09,40.42
14,-0.04,0.74,-0.09,40.30
14,0.06,0.70,0.01,38.74
14,0.06,1.27,0.19,39.09
14,0.10,1.27,0.19,37.86
14,-0.07,0.65,-0.11,37.86
14,-0.09,0.87,-0.02,39.60
14,-0.03,0.87,-0.05,39.20
14,0.02,1.51,0.20,39.20
14,0.06,0.94,-0.03,38.55
14,-0.07,0.94,-0.02,39.64
14,0.04,0.70,-0.02,39.64
14,0.11,1.14,0.16,39.56
14,0.11,1.14,-0.03,39.36
14,-0.01,0.89,-0.03,39.36
14,-0.08,0.81,-0.08,40.09
14,-0.08,0.83,0.16,39.83
14,0.00,1.40,0.16,39.21
14,-0.07,1.21,0.06,39.99
14,-0.07,1.24,-0.06,39.31
14,-0.05,0.68,-0.06,38.75
14,0.09,1.04,0.14,38.75
14,0.09,1.04,0.02,38.53
14,0.03,1.04,0.02,40.02
14,-0.07,0.73,-0.12,40.02
14,-0.11,1.21,0.11,42.04
14,0.01,1.21,0.09,40.80
14,-0.02,1.45,0.15,40.80
14,-0.01,0.66,-0.08,40.25
14,-0.07,0.66,0.10,38.78
14,0.09,0.87,0.10,38.78
14,0.04,1.24,0.07,38.86
14,0.04,1.24,-0.15,40.03
14,-0.06,0.61,-0.15,40.03
14,-0.00,1.09,0.08,39.28
14,-0.00,1.07,0.22,40.02
14,0.04,1.63,0.22,40.13
14,-0.07,0.65,-0.11,39.35
14,-0.07,0.82,0.08,37.31
14,0.06,0.82,0.08,37.43
14,0.08,1.35,0.19,37.43
14,0.08,0.54,-0.18,39.73
14,-0.05,0.54,-0.15,41.17
14,-0.02,1.08,0.04,41.17
14,-0.05,1.75,0.26,38.84
14,0.02,1.75,0.26,39.04
14,-0.07,0.67,-0.12,39.04
14,0.04,0.82,0.06,38.56
14,0.04,0.82,0.23,38.50
14,0.09,1.33,0.23,38.50
14,-0.06,0.54,-0.17,39.46
14,-0.06,0.55,-0.01,39.46
14,-0.00,0.98,-0.01,39.71
14,0.01,1.65,0.25,39.71
14,0.01,1.64,-0.08,38.55
14,-0.05,0.77,-0.08,39.02
14,0.08,0.70,0.01,39.81
14,0.08,1.25,0.19,39.78
14,0.10,1.25,0.19,39.33
14,-0.06,0.65,-0.11,39.33
14,-0.06,0.88,-0.02,37.19
14,-0.01,0.88,-0.05,41.67
14,0.01,1.54,0.20,41.67
14,0.04,0.95,-0.02,39.13
14,-0.08,0.95,-0.01,37.22
14,0.04,0.70,-0.01,37.22
14,0.10,1.12,0.16,39.20
14,0.10,1.12,-0.04,39.33
14,-0.02,0.87,-0.04,39.33
14,-0.06,0.85,-0.06,37.60
14,-0.06,0.86,0.16,40.13
14,-0.01,1.42,0.16,40.30
14,-0.08,1.22,0.06,38.73
14,-0.08,1.23,-0.06,37.93
14,-0.07,0.67,-0.06,39.28
14,0.10,1.01,0.13,39.28
14,0.10,1.04,0.03,38.30
14,0.03,1.04,0.03,38.63
14,-0.05,0.75,-0.11,38.63
14,-0.01,1.23,0.12,38.99
14,-0.01,1.23,0.10,40.35
14,-0.02,1.46,0.16,40.35
14,-0.00,0.63,-0.09,38.63
14,-0.06,0.63,0.09,39.05
14,0.07,0.86,0.09,39.05
14,0.05,1.25,0.07,39.01
14,0.05,1.25,-0.14,37.62
14,-0.05,0.61,-0.14,37.62
14,-0.01,1.11,0.09,39.67
14,-0.01,1.12,0.23,41.34
14,0.02,1.62,0.23,40.78
15,0.02,1.73,-0.13,38.42
15,-0.06,0.68,-0.13,39.00
15,0.04,0.81,0.06,39.79
15,0.04,0.78,0.24,39.61
15,0.08,1.34,0.24,39.65
15,-0.07,0.55,-0.16,41.22
15,-0.07,0.99,-0.00,38.97
15,-0.02,0.99,-0.00,39.40
15,0.01,1.65,0.25,39.40
15,0.03,0.76,-0.08,38.21
15,-0.03,0.76,-0.11,39.17
15,0.06,0.74,0.02,39.17
15,0.09,1.24,0.19,40.32
15,0.09,1.24,0.19,39.67
15,-0.06,0.66,-0.13,39.67
15,-0.03,0.88,-0.03,40.99
15,-0.03,0.88,0.20,38.42
15,0.01,1.51,0.20,38.42
15,-0.08,0.98,-0.01,38.42
15,-0.08,0.97,-0.01,38.73
15,0.05,0.72,-0.01,38.34
15,0.10,1.12,0.16,38.34
15,0.10,1.11,-0.03,39.89
15,-0.01,0.86,-0.03,39.38
15,-0.07,0.83,-0.07,39.38
15,-0.07,1.43,0.17,40.45
15,-0.01,1.43,0.17,37.96
15,-0.07,1.24,0.06,37.96
15,-0.12,0.68,-0.06,39.37
15,-0.06,0.68,-0.06,39.34
15,0.09,1.00,0.13,39.34
15,0.11,1.03,0.02,39.86
15,0.04,1.03,-0.10,39.63
15,-0.06,0.76,-0.10,39.63
15,-0.00,1.23,0.13,41.31
15,-0.00,1.23,0.16,39.16
15,-0.02,1.48,0.16,39.36
15,-0.06,0.63,-0.09,40.93
15,-0.06,0.65,0.08,42.43
15,0.07,0.84,0.08,42.23
15,0.05,1.24,0.07,39.88
15,0.05,0.61,-0.14,40.22
15,-0.05,0.61,-0.14,40.00
15,-0.02,1.12,0.10,40.00
15,-0.02,1.62,0.23,38.52
15,0.02,1.62,0.20,38.49
15,-0.05,0.62,-0.11,38.49
15,-0.02,0.81,0.08,39.47
15,0.04,0.81,0.08,41.62
15,0.07,1.38,0.21,41.62
15,-0.05,0.58,-0.17,38.61
15,-0.05,0.58,0.05,38.44
15,-0.04,1.08,0.05,38.44
15,0.02,1.71,0.23,39.12
15,0.02,1.70,-0.13,40.17
15,-0.05,0.64,-0.13,40.49
15,0.03,0.81,0.07,39.71
15,0.03,0.80,0.25,40.09
15,0.09,1.36,0.25,40.18
15,-0.07,0.57,-0.14,41.75
15,-0.07,0.96,0.00,39.03
15,-0.03,0.96,0.00,39.43
15,0.02,1.62,0.24,39.43
15,0.02,0.75,-0.08,40.35
15,-0.04,0.75,-0.11,37.53
15,0.06,0.71,0.01,37.53
15,0.09,1.26,0.19,41.52
15,0.09,1.26,-0.10,41.59
15,-0.06,0.65,-0.10,41.59
15,-0.04,0.86,-0.03,40.61
15,-0.04,0.86,0.21,40.10
15,0.01,1.50,0.21,40.10
15,-0.07,0.96,-0.02,39.61
15,-0.07,1.00,-0.01,37.73
15,0.04,0.75,-0.01,37.85
15,0.10,1.11,0.16,37.85
15,0.10,0.89,-0.04,39.98
15,-0.01,0.89,-0.04,42.17
15,-0.07,0.83,-0.06,42.17
15,-0.07,1.40,0.16,40.32
15,-0.01,1.40,0.16,39.25
15,-0.06,1.24,0.07,39.25
15,-0.06,0.70,-0.06,40.80
15,-0.06,0.70,-0.05,39.82
15,0.09,0.98,0.14,39.82
15,0.03,1.04,0.03,39.52
15,0.03,1.04,-0.11,38.11
15,-0.07,0.73,-0.11,38.11
15,0.00,1.22,0.11,38.81
15,0.00,1.22,0.16,39.98
15,-0.00,1.47,0.16,39.98
15,-0.07,0.64,-0.08,39.20
15,-0.07,0.64,0.10,41.52
15,0.08,0.83,0.10,41.93
15,0.05,1.22,0.08,38.01
15,0.05,0.61,-0.15,39.84
15,-0.05,0.61,-0.15,38.29
15,-0.01,1.11,0.09,38.29
15,-0.01,1.64,0.22,39.96
15,0.04,1.64,0.21,38.69
15,-0.05,0.64,-0.10,38.69
15,-0.01,0.79,0.08,40.22
15,0.05,0.79,0.07,38.86
15,0.09,1.36,0.19,38.86
15,-0.04,0.56,-0.17,40.14
15,-0.04,0.56,0.05,41.95
15,-0.03,1.08,0.05,41.95
15,0.03,1.74,0.24,38.89
15,0.03,1.71,-0.13,39.26
15,-0.04,0.65,-0.13,39.63
15,0.04,0.80,0.05,37.28
15,0.04,0.78,0.24,38.41
15,0.09,1.34,0.24,37.83
15,-0.07,0.56,-0.16,37.83
15,-0.07,0.97,-0.00,38.93
15,-0.02,0.97,-0.00,40.15
15,0.03,1.63,0.26,40.15
15,0.02,0.74,-0.07,39.14
15,-0.04,0.74,-0.12,38.87
15,0.06,0.71,0.01,38.87
15,0.04,1.25,0.19,41.13
15,0.10,1.25,-0.11,39.14
15,-0.06,0.68,-0.11,39.14
15,-0.04,0.84,-0.02,38.98
15,-0.04,0.84,0.19,40.51
15,0.02,1.52,0.19,40.51
15,-0.07,0.94,-0.02,39.03
15,-0.07,1.00,-0.01,39.46
15,0.03,0.69,-0.01,39.66
15,0.10,1.14,0.16,38.09
15,0.10,0.88,-0.03,39.07
15,-0.01,0.88,-0.03,38.87
15,-0.07,0.83,-0.08,38.87
15,-0.07,1.39,0.14,38.75
15,-0.00,1.39,0.18,38.55
15,-0.07,1.23,0.06,38.55
15,-0.08,0.70,-0.04,38.02
15,-0.08,0.70,-0.05,38.14
15,0.11,1.00,0.14,38.14
15,0.05,1.06,0.03,39.01
15,0.05,1.06,-0.12,39.11
15,-0.05,0.72,-0.12,39.11
15,0.02,1.19,0.11,39.44
15,0.02,1.25,0.17,41.12
15,-0.02,1.50,0.17,41.05
15,-0.07,0.65,-0.09,37.91
15,-0.07,0.65,0.09,40.34
15,0.08,0.84,0.09,40.46
15,0.05,1.23,0.06,41.24
15,0.05,0.57,-0.16,39.87
15,-0.05,0.57,-0.16,37.60
15,-0.01,1.11,0.08,37.60
15,-0.04,1.65,0.24,38.37
15,0.02,1.65,0.21,39.72
15,-0.06,0.65,-0.10,39.72
15,-0.06,0.79,0.08,41.42
15,0.07,0.79,0.12,38.19
15,0.09,1.34,0.18,38.19
15,-0.06,0.56,-0.17,38.89
15,-0.06,0.56,0.06,40.25
15,-0.03,1.09,0.06,40.25
15,0.02,1.75,0.25,39.48
15,0.02,1.78,-0.11,43.53
15,-0.06,0.66,-0.11,43.62
15,0.05,0.78,0.04,38.14
15,0.05,0.75,0.24,39.78
15,0.10,1.32,0.24,40.19
15,-0.06,0.56,-0.16,40.19
15,-0.06,0.98,-0.00,40.55
15,-0.02,0.98,-0.00,39.81
15,0.03,1.65,0.25,39.81
15,0.02,0.74,-0.08,38.82
15,-0.04,0.74,-0.11,40.25
15,0.07,0.71,0.01,40.25
15,0.11,1.22,0.17,37.28
15,0.11,1.22,-0.10,39.29
15,-0.05,0.67,-0.10,39.29
15,-0.02,0.87,-0.02,39.02
15,-0.02,0.87,0.20,38.72
15,0.02,1.50,0.20,38.72
15,-0.08,0.95,-0.02,40.84
15,-0.08,0.95,-0.01,38.17
15,0.04,0.70,-0.01,37.83
15,0.10,1.11,0.16,38.61
15,0.10,0.90,-0.02,38.76
15,0.00,0.90,-0.02,38.35
15,-0.07,0.80,-0.07,38.35
15,-0.07,1.39,0.16,39.76
15,0.01,1.39,0.16,40.22
15,-0.06,1.22,0.07,40.22
15,-0.06,0.67,-0.07,41.40
15,-0.06,0.67,-0.11,37.91
15,0.10,1.01,0.14,37.91
15,0.04,1.05,0.04,41.23
15,0.04,1.05,-0.12,39.34
15,-0.05,0.72,-0.12,39.34
15,0.01,1.20,0.11,38.67
15,0.01,1.19,0.16,39.65
15,-0.01,1.44,0.16,39.18
15,-0.06,0.64,-0.09,40.75
15,-0.06,0.66,0.09,39.40
15,0.07,0.85,0.09,39.74
15,0.05,1.25,0.08,38.96
15,0.05,0.58,-0.15,40.43
15,-0.04,0.58,-0.15,40.46
15,-0.00,1.10,0.08,40.46
15,-0.03,1.64,0.24,37.65
15,0.03,1.64,0.19,36.34
15,-0.06,0.64,-0.12,36.34
15,-0.01,0.80,0.08,39.51
15,0.05,0.80,0.07,40.73
15,0.08,1.36,0.20,40.73
15,-0.04,0.56,-0.18,38.62
15,-0.04,0.56,0.04,39.90
15,-0.01,1.06,0.04,39.90
15,0.02,1.72,0.24,38.86
15,0.02,1.72,-0.12,39.88
15,-0.05,0.66,-0.12,39.57
15,0.04,0.80,0.05,41.14
15,0.04,0.81,0.24,40.38
15,0.09,1.31,0.24,38.61
15,-0.05,0.57,-0.16,38.61
15,-0.05,0.95,-0.00,39.33
15,-0.01,0.95,-0.00,41.72
15,0.02,1.62,0.24,41.72
15,0.02,0.76,-0.08,40.13
15,-0.04,0.76,-0.12,41.43
15,0.07,0.70,0.01,41.43
15,0.10,1.23,0.18,40.33
15,0.10,1.23,-0.11,39.12
15,-0.05,0.67,-0.11,39.12
15,-0.03,0.86,-0.03,40.17
15,-0.03,0.86,0.20,39.91
16,0.00,1.39,0.16,37.87
16,0.00,1.39,0.05,38.20
16,-0.05,1.24,0.05,38.20
16,-0.05,0.67,-0.07,37.33
16,-0.05,0.67,0.12,39.48
16,0.09,0.97,0.12,39.87
16,0.05,1.06,0.03,39.87
16,0.05,1.04,-0.13,39.98
16,-0.05,0.73,-0.13,40.24
16,0.01,1.20,0.12,39.46
16,0.01,1.47,0.16,39.60
16,0.00,1.47,0.16,38.91
16,-0.05,0.63,-0.10,38.91
16,-0.05,0.84,0.09,39.07
16,0.07,0.84,0.08,39.03
16,0.06,1.23,0.08,39.03
16,0.03,0.60,-0.16,39.18
16,-0.03,0.60,-0.16,40.49
16,0.01,1.08,0.09,40.49
16,0.03,1.62,0.23,39.39
16,0.03,1.62,-0.12,38.60
16,-0.05,0.65,-0.12,38.60
16,0.04,0.80,0.08,38.96
16,0.04,0.80,0.19,39.68
16,0.09,1.37,0.19,39.48
16,-0.03,0.57,-0.18,39.48
16,-0.03,0.60,0.04,41.11
16,-0.03,1.04,0.04,40.37
16,0.03,1.73,0.25,40.37
16,0.03,0.66,-0.12,37.68
16,-0.05,0.66,-0.12,39.63
16,0.04,0.80,0.04,39.63
16,0.03,1.32,0.24,40.93
16,0.09,1.32,0.21,38.19
16,-0.05,0.54,-0.17,38.19
16,-0.01,0.95,-0.01,40.27
16,-0.01,0.95,0.24,38.94
16,0.03,1.63,0.24,38.94
16,-0.03,0.75,-0.08,39.08
16,-0.03,0.75,-0.00,40.19
16,0.07,0.70,-0.00,40.19
16,0.10,1.24,0.18,39.08
16,0.10,1.23,-0.11,40.68
16,-0.05,0.67,-0.11,41.30
16,-0.02,0.86,-0.03,39.74
16,-0.02,1.49,0.19,37.65
16,0.02,1.49,0.19,38.46
16,-0.07,0.97,-0.02,38.46
16,-0.07,0.68,-0.01,38.60
16,0.04,0.68,-0.01,39.83
16,0.11,1.14,0.16,39.83
16,0.06,0.89,-0.03,41.32
16,0.00,0.89,-0.00,40.56
16,-0.07,0.83,-0.07,40.56
16,0.00,1.38,0.15,40.23
16,0.00,1.38,0.06,38.83
16,-0.05,1.24,0.06,38.83
16,-0.06,0.66,-0.06,39.18
16,-0.06,0.68,0.14,38.10
16,0.10,1.00,0.14,38.04
16,0.05,1.05,0.02,38.82
16,0.05,1.05,-0.13,39.16
16,-0.06,0.73,-0.13,39.75
16,0.02,1.18,0.11,38.97
16,0.02,1.49,0.16,41.80
16,0.00,1.49,0.16,40.88
16,-0.06,0.61,-0.09,40.88
16,-0.05,0.85,0.09,39.45
16,0.08,0.85,0.07,38.14
16,0.06,1.25,0.07,38.14
16,0.01,0.60,-0.15,38.06
16,-0.05,0.60,-0.18,39.16
16,-0.00,1.08,0.07,39.16
16,0.04,1.66,0.23,38.02
16,0.04,1.66,-0.11,39.53
16,-0.06,0.63,-0.11,39.53
16,0.05,0.81,0.08,38.93
16,0.05,0.85,0.19,36.79
16,0.10,1.35,0.19,37.05
16,-0.05,0.56,-0.17,38.62
16,-0.05,0.60,0.04,40.24
16,-0.02,1.04,0.04,39.43
16,0.03,1.72,0.24,39.43
16,0.03,0.67,-0.11,39.34
16,-0.05,0.67,-0.11,39.19
16,0.05,0.80,0.05,39.19
16,0.03,1.33,0.22,40.45
16,0.09,1.33,0.22,38.27
16,-0.06,0.55,-0.16,38.27
16,-0.01,0.93,-0.00,40.68
16,-0.01,0.93,0.24,39.75
16,0.02,1.61,0.24,39.75
16,-0.04,0.77,-0.07,38.87
16,-0.04,0.77,0.01,41.34
16,0.07,0.73,0.01,41.09
16,0.10,1.23,0.17,39.52
16,0.10,1.21,-0.12,39.88
16,-0.05,0.65,-0.12,39.10
16,-0.02,0.86,-0.03,38.32
16,-0.02,1.50,0.19,39.76
16,0.02,1.50,0.19,38.64
16,-0.09,0.99,-0.00,38.64
16,-0.09,0.71,-0.01,40.49
16,0.04,0.71,-0.03,38.56
16,0.12,1.12,0.16,38.56
16,0.12,0.88,-0.04,40.52
16,-0.00,0.88,-0.01,39.44
16,-0.08,0.83,-0.07,39.44
16,0.00,1.39,0.16,39.08
16,0.00,1.39,0.07,39.24
16,-0.06,1.26,0.07,39.24
16,-0.06,0.66,-0.06,38.69
16,-0.06,0.66,0.12,39.70
16,0.10,0.97,0.12,39.32
16,0.04,1.03,0.04,38.53
16,0.04,1.04,-0.12,40.23
16,-0.07,0.73,-0.12,39.62
16,0.02,1.21,0.11,39.62
16,0.02,1.48,0.16,41.48
16,-0.00,1.48,0.16,39.93
16,-0.06,0.63,-0.09,39.93
16,-0.11,0.85,0.08,41.52
16,0.08,0.85,0.09,41.45
16,0.05,1.22,0.09,41.45
16,0.01,0.60,-0.14,39.86
16,-0.05,0.60,0.08,37.78
16,0.01,1.10,0.08,37.78
16,0.03,1.65,0.23,37.90
16,0.03,1.65,-0.12,38.92
16,-0.06,0.64,-0.12,38.32
16,0.05,0.81,0.08,39.89
16,0.05,0.75,0.19,40.26
16,0.08,1.38,0.19,40.22
16,-0.04,0.56,-0.17,39.44
16,-0.04,1.07,0.03,38.23
16,-0.02,1.07,0.03,41.59
16,0.02,1.73,0.26,41.59
16,0.02,0.66,-0.11,40.66
16,-0.05,0.66,-0.08,39.09
16,0.04,0.81,0.04,39.09
16,0.02,1.32,0.24,41.20
16,0.08,1.32,0.21,39.85
16,-0.06,0.56,-0.17,39.85
16,-0.01,0.95,-0.00,40.46
16,-0.01,0.95,0.24,38.73
16,0.01,1.64,0.24,38.73
16,-0.04,0.79,-0.07,39.41
16,-0.04,0.78,0.01,38.54
16,0.08,0.72,0.01,38.56
16,0.09,1.24,0.16,39.34
16,0.09,1.23,-0.11,40.09
16,-0.06,0.67,-0.11,40.62
16,-0.02,0.84,-0.04,40.62
16,-0.02,1.50,0.21,41.26
16,0.01,1.50,0.21,39.47
16,-0.07,0.98,0.00,39.47
16,-0.09,0.71,-0.02,39.88
16,0.04,0.71,-0.04,40.69
16,0.10,1.10,0.14,40.69
16,0.10,0.88,-0.04,41.21
16,-0.02,0.88,-0.01,39.17
16,-0.06,0.83,-0.07,39.17
16,-0.00,1.40,0.16,41.09
16,-0.00,1.40,0.06,38.49
16,-0.07,1.27,0.06,38.49
16,-0.07,0.70,-0.06,39.11
16,-0.07,0.71,0.12,37.43
16,0.10,0.96,0.12,37.43
16,0.05,1.05,0.04,39.78
16,0.05,1.03,-0.11,39.61
16,-0.05,0.72,-0.11,40.54
16,0.00,1.23,0.12,40.54
16,0.00,1.51,0.16,39.60
16,-0.02,1.51,0.16,40.33
16,-0.07,0.63,-0.09,40.33
16,-0.11,0.82,0.08,39.12
16,0.07,0.82,0.07,41.00
16,0.06,1.24,0.07,41.00
16,0.02,0.60,-0.15,39.83
16,-0.04,0.60,0.09,39.09
16,-0.01,1.13,0.09,39.09
16,0.02,1.66,0.25,39.78
16,0.02,1.66,-0.12,41.77
16,-0.04,0.65,-0.12,41.77
16,0.06,0.78,0.08,38.61
16,0.06,0.80,0.19,39.18
16,0.07,1.36,0.19,39.32
16,-0.05,0.59,-0.18,38.54
16,-0.05,1.08,0.05,39.91
16,-0.05,1.08,0.05,39.66
16,0.01,1.72,0.24,39.66
16,0.01,0.65,-0.13,38.90
16,-0.05,0.65,-0.14,38.82
16,0.04,0.78,0.05,38.82
16,0.01,1.34,0.24,38.45
16,0.08,1.34,0.21,43.05
16,-0.07,0.58,-0.16,43.05
16,-0.02,0.97,-0.00,40.83
16,-0.02,0.97,0.24,39.49
16,0.01,1.62,0.24,39.49
16,-0.03,0.74,-0.08,37.68
16,-0.03,0.73,0.02,38.31
16,0.07,0.73,0.02,37.65
16,0.07,1.26,0.19,40.78
16,0.07,1.26,-0.10,38.24
16,-0.05,0.70,-0.10,37.97
16,-0.03,0.87,-0.03,38.75
16,-0.03,1.48,0.19,39.22
16,0.01,1.48,0.19,40.15
16,-0.07,0.96,-0.02,40.15
16,-0.08,0.73,-0.00,39.74
16,0.05,0.73,-0.02,37.49
16,0.10,1.13,0.17,37.49
16,0.11,0.90,-0.03,38.01
16,-0.02,0.90,-0.01,40.49
16,-0.08,0.81,-0.08,40.49
16,-0.01,1.39,0.15,38.55
16,-0.01,1.39,0.06,39.08
16,-0.06,1.25,0.06,39.08
16,-0.06,0.70,-0.06,39.19
16,-0.06,0.70,0.13,39.88
16,0.10,1.01,0.13,39.17
16,0.05,1.05,0.03,39.17
16,0.05,1.03,-0.13,38.98
16,-0.07,0.72,-0.13,38.02
16,0.00,1.20,0.13,38.02
16,0.00,1.51,0.17,37.95
16,-0.01,1.51,0.17,38.33
16,-0.06,0.66,-0.08,38.33
16,-0.00,0.83,0.09,39.41
16,0.06,0.83,0.07,39.38
16,0.07,1.23,0.07,39.38
16,0.06,0.59,-0.16,40.02
17,-0.06,0.56,-0.16,39.40
17,-0.04,1.08,0.05,38.02
17,-0.04,1.08,0.01,39.46
17,0.02,1.74,0.26,39.46
17,-0.06,0.67,-0.12,39.68
17,-0.06,0.67,0.05,38.50
17,0.03,0.77,0.05,38.50
17,0.09,1.31,0.23,38.60
17,0.09,1.31,-0.14,39.20
17,-0.06,0.59,-0.14,39.85
17,-0.04,0.97,0.00,38.28
17,-0.04,0.95,0.24,38.26
17,0.02,1.63,0.24,38.27
17,-0.04,0.76,-0.08,37.49
17,-0.04,0.71,0.00,41.29
17,0.07,0.71,0.00,40.28
17,0.09,1.24,0.18,40.28
17,0.09,0.68,-0.10,40.21
17,-0.07,0.68,-0.08,39.61
17,-0.03,0.88,-0.02,39.61
17,-0.05,1.51,0.20,39.35
17,0.01,1.51,0.23,39.51
17,-0.08,0.97,-0.02,39.51
17,0.04,0.71,-0.01,39.19
17,0.04,0.71,0.15,40.04
17,0.11,1.10,0.15,40.04
17,-0.01,0.91,-0.02,40.95
17,-0.01,0.90,-0.07,39.35
17,-0.09,0.83,-0.07,39.83
17,-0.01,1.38,0.15,39.05
17,-0.01,1.43,0.06,39.53
17,-0.06,1.25,0.06,39.35
17,-0.07,0.67,-0.06,39.35
17,-0.07,1.00,0.12,40.02
17,0.09,1.00,0.12,41.09
17,0.03,1.06,0.04,41.09
17,0.06,0.72,-0.11,39.47
17,-0.06,0.72,-0.08,39.62
17,0.02,1.19,0.11,39.62
17,0.00,1.49,0.17,40.91
17,0.00,1.49,-0.09,41.21
17,-0.07,0.64,-0.09,41.21
17,0.07,0.85,0.09,40.59
17,0.07,0.85,0.09,38.13
17,0.05,1.23,0.09,38.13
17,-0.06,0.61,-0.15,39.78
17,-0.06,0.60,0.08,38.29
17,0.00,1.10,0.08,37.68
17,0.03,1.65,0.24,39.25
17,0.03,0.67,-0.11,40.90
17,-0.07,0.67,-0.11,40.34
17,0.05,0.81,0.08,40.34
17,0.05,1.35,0.20,38.42
17,0.08,1.35,0.20,38.86
17,-0.06,0.57,-0.17,38.86
17,-0.03,1.05,0.04,40.10
17,-0.03,1.05,0.02,39.10
17,0.01,1.75,0.27,39.10
17,-0.06,0.67,-0.10,39.55
17,-0.06,0.67,0.04,38.90
17,0.03,0.80,0.04,38.90
17,0.08,1.32,0.24,38.11
17,0.08,1.37,-0.15,40.59
17,-0.06,0.56,-0.15,40.49
17,-0.02,0.98,0.00,41.28
17,-0.02,0.95,0.25,39.52
17,0.02,1.64,0.25,39.68
17,-0.04,0.78,-0.07,40.47
17,-0.04,0.70,0.01,41.91
17,0.06,0.70,0.01,39.35
17,0.11,1.22,0.18,39.35
17,0.12,0.68,-0.12,39.14
17,-0.06,0.68,-0.08,38.39
17,-0.03,0.88,-0.02,38.39
17,-0.06,1.52,0.20,39.55
17,0.01,1.52,0.25,40.01
17,-0.09,0.98,-0.00,40.01
17,0.04,0.68,-0.01,41.10
17,0.04,0.68,0.16,37.71
17,0.11,1.12,0.16,37.71
17,-0.02,0.90,-0.04,37.93
17,-0.02,0.90,-0.07,40.58
17,-0.08,0.84,-0.07,40.23
17,0.00,1.40,0.16,38.66
17,0.00,1.44,0.07,40.63
17,-0.07,1.25,0.07,40.73
17,-0.07,0.65,-0.06,40.73
17,-0.07,0.99,0.14,38.02
17,0.09,0.99,0.14,39.14
17,0.05,1.06,0.04,39.14
17,0.05,0.74,-0.12,40.89
17,-0.07,0.74,-0.07,41.09
17,0.00,1.20,0.12,41.09
17,0.05,1.49,0.15,38.70
17,-0.01,1.49,-0.09,39.18
17,-0.06,0.62,-0.09,39.18
17,0.08,0.86,0.09,40.50
17,0.08,0.86,0.09,40.51
17,0.06,1.26,0.09,40.63
17,-0.04,0.59,-0.15,39.07
17,-0.04,0.60,0.08,40.81
17,-0.00,1.10,0.08,40.86
17,0.03,1.66,0.24,40.08
17,0.03,0.63,-0.12,40.70
17,-0.06,0.63,-0.12,39.53
17,0.05,0.82,0.08,39.53
17,0.05,1.38,0.20,39.57
17,0.07,1.38,0.20,39.71
17,-0.05,0.57,-0.17,39.71
17,-0.03,1.06,0.05,41.50
17,-0.03,1.06,0.06,41.95
17,0.02,1.73,0.25,41.95
17,-0.05,0.66,-0.12,40.72
17,-0.05,0.66,0.06,41.50
17,0.04,0.80,0.06,41.50
17,0.10,1.36,0.24,37.94
17,0.10,1.32,-0.15,37.53
17,-0.07,0.57,-0.15,37.14
17,-0.01,0.95,-0.00,37.92
17,-0.01,1.00,0.25,39.85
17,0.03,1.62,0.25,39.72
17,-0.04,0.78,-0.07,41.28
17,-0.04,0.71,0.01,41.14
17,0.06,0.71,0.01,41.34
17,0.10,1.23,0.19,41.34
17,0.07,0.66,-0.12,41.08
17,-0.05,0.66,-0.09,39.55
17,-0.03,0.86,-0.02,39.55
17,-0.05,1.50,0.22,36.67
17,0.01,1.50,0.01,38.62
17,-0.08,0.99,0.01,38.62
17,0.04,0.70,-0.01,39.68
17,0.04,0.70,0.17,38.41
17,0.11,1.11,0.17,38.41
17,-0.01,0.88,-0.04,36.97
17,-0.01,0.90,-0.07,40.43
17,-0.08,0.83,-0.07,40.15
17,-0.02,1.40,0.16,38.59
17,-0.02,1.26,0.07,38.07
17,-0.06,1.26,0.07,38.79
17,-0.05,0.67,-0.06,38.79
17,-0.05,0.97,0.11,39.27
17,0.11,0.97,0.11,41.07
17,0.05,1.04,0.03,41.07
17,0.05,0.72,-0.12,38.18
17,-0.07,0.72,-0.12,40.30
17,0.00,1.21,0.13,40.30
17,0.00,1.46,0.15,39.97
17,0.00,1.46,-0.09,40.15
17,-0.04,0.63,-0.09,40.15
17,0.08,0.82,0.08,41.24
17,0.08,0.82,0.08,39.61
17,0.06,1.21,0.08,39.24
17,-0.05,0.60,-0.14,38.45
17,-0.05,0.61,0.09,41.87
17,-0.01,1.11,0.09,42.13
17,0.03,1.64,0.25,40.57
17,0.03,0.65,-0.11,41.11
17,-0.05,0.65,-0.11,40.87
17,0.04,0.81,0.08,40.87
17,0.04,1.36,0.19,40.09
17,0.09,1.36,0.20,37.56
17,-0.05,0.57,-0.17,37.56
17,-0.04,1.06,0.05,40.54
17,-0.04,1.06,0.05,38.75
17,0.02,1.70,0.24,38.75
17,-0.04,0.66,-0.12,38.08
17,-0.04,0.66,0.05,40.36
17,0.04,0.80,0.05,40.36
17,0.09,1.32,0.23,36.93
17,0.09,1.32,-0.16,38.17
17,-0.06,0.57,-0.16,38.13
17,-0.01,0.96,-0.01,40.48
17,-0.01,0.99,0.23,40.58
17,0.02,1.61,0.23,39.23
17,-0.04,0.77,-0.08,39.23
17,-0.04,0.73,0.01,39.16
17,0.07,0.73,0.01,38.64
17,0.10,1.21,0.18,38.64
17,0.07,0.67,-0.11,40.18
17,-0.05,0.67,-0.09,40.06
17,-0.03,0.84,-0.03,40.06
17,-0.05,1.48,0.20,38.13
17,0.01,1.48,-0.01,37.16
17,-0.07,0.97,-0.01,37.16
17,0.03,0.71,-0.00,38.83
17,0.03,0.71,0.16,38.33
17,0.10,1.11,0.16,38.33
17,-0.00,0.89,-0.03,39.57
17,-0.00,0.89,-0.07,41.44
17,-0.07,0.83,-0.07,41.37
17,-0.01,1.37,0.15,39.81
17,-0.01,1.24,0.06,39.99
17,-0.05,1.24,0.06,39.37
17,-0.06,0.68,-0.06,39.37
17,-0.06,0.97,0.12,38.45
17,0.11,0.97,0.12,39.51
17,0.04,1.06,0.04,39.51
17,0.01,0.72,-0.11,40.03
17,-0.05,0.72,-0.08,39.22
17,0.01,1.19,0.11,39.22
17,0.00,1.49,0.17,39.72
17,0.00,1.49,-0.10,40.02
17,-0.06,0.62,-0.10,40.02
17,0.07,0.82,0.08,40.82
17,0.07,0.82,0.09,41.41
17,0.06,1.23,0.09,41.30
17,-0.04,0.60,-0.15,38.95
17,-0.04,0.61,0.07,39.24
17,-0.01,1.11,0.07,39.14
17,0.04,1.64,0.24,38.35
17,0.04,0.64,-0.12,38.52
17,-0.05,0.64,-0.12,38.54
17,0.05,0.77,0.07,38.54
17,0.03,1.35,0.18,39.83
17,0.09,1.35,0.15,39.04
17,-0.03,0.58,-0.17,39.04
17,-0.04,1.05,0.05,40.83
17,-0.04,1.05,0.06,38.83
17,0.04,1.74,0.25,38.83
17,-0.04,0.65,-0.11,40.21
17,-0.04,0.65,0.05,41.36
17,0.04,0.76,0.05,41.36
17,0.09,1.33,0.24,40.82
17,0.09,1.33,-0.15,39.57
17,-0.05,0.58,-0.15,39.52
17,-0.02,0.95,0.00,41.09
17,-0.02,0.98,0.24,39.52
17,0.04,1.61,0.24,38.67
17,-0.03,0.76,-0.07,38.67
17,-0.03,0.70,0.00,40.04
17,0.06,0.70,0.00,39.65
17,0.10,1.22,0.17,39.65
18,0.11,1.09,0.16,37.75
18,-0.00,0.89,-0.03,37.75
18,-0.00,0.82,-0.07,38.57
18,-0.07,0.82,-0.07,40.59
18,0.01,1.37,0.15,40.59
18,0.00,1.25,0.07,38.96
18,-0.06,1.25,0.07,39.26
18,-0.06,0.68,-0.05,39.26
18,0.10,0.97,0.13,38.47
18,0.10,0.97,0.04,38.62
18,0.06,1.05,0.04,38.62
18,-0.05,0.72,-0.12,38.72
18,-0.05,0.72,0.12,39.62
18,0.02,1.19,0.12,39.32
18,0.00,1.48,0.16,36.19
18,0.00,1.50,-0.10,39.85
18,-0.06,0.62,-0.10,39.45
18,0.07,0.83,0.08,39.45
18,0.07,1.24,0.10,39.47
18,0.07,1.24,0.10,38.21
18,-0.05,0.59,-0.15,38.21
18,-0.05,1.09,0.06,40.79
18,-0.01,1.09,0.05,39.38
18,0.04,1.66,0.24,39.38
18,0.00,0.62,-0.12,39.40
18,-0.06,0.62,-0.11,39.27
18,0.05,0.81,0.08,39.27
18,0.09,1.35,0.19,40.54
18,0.09,1.35,-0.18,39.16
18,-0.05,0.57,-0.18,39.16
18,-0.03,1.06,0.05,37.20
18,-0.03,1.04,0.25,39.40
18,0.02,1.73,0.25,39.29
18,-0.05,0.65,-0.12,40.07
18,-0.05,0.65,0.04,38.29
18,0.04,0.78,0.04,38.66
18,0.10,1.33,0.23,38.66
18,0.10,0.58,-0.16,37.87
18,-0.07,0.58,-0.16,38.83
18,-0.00,0.95,-0.01,38.83
18,-0.03,1.62,0.24,40.79
18,0.03,1.62,0.24,41.55
18,-0.05,0.74,-0.07,41.55
18,-0.05,0.72,0.00,38.95
18,0.07,0.72,0.16,39.11
18,0.09,1.24,0.16,39.11
18,-0.07,0.69,-0.11,39.55
18,-0.07,0.69,-0.03,39.80
18,-0.02,0.85,-0.03,39.80
18,0.03,1.50,0.20,39.45
18,0.03,1.48,-0.01,38.85
18,-0.09,0.98,-0.01,38.73
18,0.05,0.71,-0.01,40.30
18,0.05,1.11,0.15,41.22
18,0.11,1.11,0.15,42.17
18,-0.00,0.88,-0.04,42.17
18,-0.00,0.81,-0.09,40.22
18,-0.07,0.81,-0.10,40.37
18,0.01,1.38,0.15,40.37
18,0.06,1.27,0.06,40.12
18,-0.06,1.27,0.06,38.82
18,-0.05,0.66,-0.07,38.82
18,0.11,0.98,0.12,37.89
18,0.11,0.98,0.03,38.09
18,0.05,1.05,0.03,38.09
18,-0.06,0.69,-0.13,39.12
18,-0.06,0.70,0.10,38.43
18,0.04,1.20,0.10,38.49
18,-0.00,1.50,0.15,38.49
18,-0.00,1.44,-0.10,38.70
18,-0.07,0.63,-0.10,38.82
18,0.08,0.85,0.08,38.82
18,0.08,1.23,0.09,40.77
18,0.07,1.23,0.09,39.62
18,-0.06,0.59,-0.16,39.62
18,-0.06,1.11,0.08,38.33
18,0.01,1.11,0.12,38.73
18,0.03,1.65,0.24,38.73
18,0.01,0.65,-0.13,40.32
18,-0.06,0.65,-0.17,38.60
18,0.05,0.79,0.08,38.60
18,0.10,1.37,0.19,39.29
18,0.10,1.37,-0.17,37.99
18,-0.04,0.57,-0.17,37.99
18,-0.02,1.05,0.03,40.29
18,-0.02,1.04,0.26,38.16
18,0.01,1.72,0.26,38.16
18,-0.06,0.66,-0.12,38.16
18,-0.06,0.65,0.04,40.07
18,0.05,0.77,0.04,38.57
18,0.10,1.32,0.23,38.57
18,0.10,0.57,-0.15,41.72
18,-0.05,0.57,-0.15,39.34
18,-0.01,0.96,-0.01,39.34
18,-0.06,1.61,0.23,40.09
18,0.00,1.61,0.23,41.18
18,-0.04,0.78,-0.08,41.18
18,0.08,0.72,-0.00,39.09
18,0.08,0.72,0.18,38.39
18,0.10,1.22,0.18,38.39
18,-0.05,0.70,-0.12,40.01
18,-0.05,0.70,-0.03,37.86
18,-0.03,0.87,-0.03,37.93
18,0.01,1.47,0.20,40.28
18,0.01,1.48,-0.01,38.70
18,-0.08,0.98,-0.01,38.96
18,0.05,0.70,-0.01,38.17
18,0.05,1.10,0.16,39.32
18,0.12,1.10,0.16,37.57
18,-0.00,0.90,-0.03,37.57
18,-0.00,0.84,-0.08,39.11
18,-0.07,0.84,-0.10,40.22
18,-0.00,1.38,0.15,40.22
18,-0.04,1.25,0.07,40.09
18,-0.04,1.25,0.07,40.57
18,-0.06,0.69,-0.06,40.57
18,0.10,0.98,0.13,39.08
18,0.10,0.98,0.04,39.44
18,0.05,1.06,0.04,39.44
18,-0.05,0.73,-0.12,37.76
18,-0.05,0.74,0.11,39.27
18,0.00,1.18,0.11,39.21
18,0.00,1.48,0.16,39.21
18,0.00,1.47,-0.09,40.06
18,-0.05,0.66,-0.09,40.28
18,0.05,0.83,0.08,40.28
18,0.05,1.24,0.09,39.58
18,0.06,1.24,0.09,39.84
18,-0.03,0.57,-0.16,39.84
18,-0.00,1.13,0.07,40.31
18,-0.00,1.13,0.12,40.71
18,0.03,1.65,0.25,40.71
18,0.01,0.67,-0.12,41.20
18,-0.05,0.67,0.07,39.22
18,0.04,0.80,0.07,39.22
18,0.08,1.33,0.18,37.71
18,0.08,1.33,-0.18,38.94
18,-0.04,0.57,-0.18,38.94
18,-0.04,1.07,0.05,41.03
18,-0.04,1.10,0.26,40.87
18,0.02,1.73,0.26,40.76
18,-0.05,0.68,-0.12,39.98
18,-0.05,0.77,0.04,40.09
18,0.05,0.77,0.04,40.08
18,0.09,1.32,0.23,40.08
18,0.09,0.56,-0.16,39.40
18,-0.05,0.56,-0.18,39.99
18,-0.02,0.97,0.01,39.99
18,-0.05,1.63,0.24,40.00
18,0.02,1.63,0.23,41.27
18,-0.03,0.78,-0.08,41.27
18,0.06,0.71,0.01,38.12
18,0.06,0.71,0.17,39.49
18,0.09,1.21,0.17,39.49
18,-0.06,0.70,-0.10,37.78
18,-0.06,0.70,-0.03,38.29
18,-0.03,0.89,-0.03,37.93
18,-0.01,1.50,0.20,38.71
18,-0.01,1.54,-0.00,40.10
18,-0.08,0.97,-0.00,40.45
18,0.04,0.70,-0.01,38.89
18,0.04,1.10,0.17,39.14
18,0.10,1.10,0.17,37.85
18,-0.01,0.93,-0.03,37.85
18,-0.02,0.83,-0.07,39.44
18,-0.08,0.83,-0.10,39.03
18,-0.01,1.37,0.15,39.03
18,-0.06,1.25,0.06,39.53
18,-0.06,1.25,0.00,39.31
18,-0.05,0.67,-0.06,39.31
18,0.10,0.99,0.13,40.65
18,0.10,0.99,0.04,40.41
18,0.06,1.08,0.04,40.41
18,-0.06,0.72,-0.12,37.67
18,-0.06,0.74,0.10,39.72
18,0.01,1.18,0.10,39.81
18,0.00,1.50,0.15,40.59
18,0.00,1.46,-0.10,38.38
18,-0.07,0.64,-0.10,38.60
18,0.06,0.85,0.09,38.60
18,0.06,1.27,0.10,39.24
18,0.05,1.27,0.10,37.85
18,-0.05,0.60,-0.15,37.85
18,-0.02,1.08,0.08,40.40
18,-0.02,1.08,0.12,37.56
18,0.03,1.67,0.25,37.56
18,0.01,0.65,-0.11,40.40
18,-0.05,0.65,0.08,39.75
18,0.04,0.81,0.08,39.75
18,0.08,1.37,0.19,39.26
18,0.08,1.37,-0.18,36.62
18,-0.04,0.55,-0.18,36.24
18,-0.03,1.05,0.04,40.94
18,-0.03,1.05,0.26,41.10
18,0.02,1.73,0.26,41.29
18,-0.04,0.67,-0.11,39.72
18,-0.04,0.81,0.04,38.57
18,0.03,0.81,0.04,41.52
18,0.09,1.30,0.22,41.52
18,0.09,0.58,-0.16,39.11
18,-0.06,0.58,-0.13,39.75
18,-0.00,0.93,-0.01,39.75
18,-0.04,1.63,0.25,39.03
18,0.02,1.63,0.19,39.19
18,-0.05,0.80,-0.06,39.19
18,0.06,0.71,0.00,38.58
18,0.06,0.71,0.16,39.58
18,0.08,1.21,0.16,39.58
18,-0.06,0.69,-0.10,38.23
18,-0.06,0.74,-0.03,38.42
18,-0.03,0.87,-0.03,38.40
18,0.01,1.51,0.21,38.40
18,0.01,1.51,0.00,40.15
18,-0.09,1.01,0.00,40.43
18,0.03,0.69,-0.02,40.43
18,0.03,1.07,0.16,40.27
18,0.11,1.07,0.16,37.90
18,-0.01,0.90,-0.05,37.90
18,-0.02,0.85,-0.07,42.29
18,-0.08,0.85,-0.10,40.74
18,0.00,1.40,0.15,40.74
18,0.00,1.27,0.07,39.99
18,-0.06,1.27,0.12,40.40
18,-0.07,0.66,-0.07,40.40
18,0.11,0.95,0.11,38.90
18,0.11,0.95,0.05,39.65
18,0.04,1.07,0.05,39.65
18,-0.06,0.76,-0.11,39.60
18,-0.06,0.76,0.12,40.44
18,0.02,1.19,0.12,40.55
18,0.00,1.51,0.16,39.77
18,0.00,0.59,-0.10,39.00
18,-0.07,0.59,-0.10,39.41
19,-0.06,0.68,0.08,37.98
19,0.05,0.81,0.08,38.04
19,0.08,1.37,0.19,40.39
19,0.08,0.59,-0.18,38.99
19,-0.05,0.59,-0.18,38.51
19,-0.04,1.04,0.04,38.51
19,-0.05,1.74,0.25,37.55
19,0.01,1.74,0.27,38.38
19,-0.05,0.65,-0.11,38.38
19,-0.03,0.80,0.04,39.69
19,0.03,0.80,0.04,37.93
19,0.09,1.33,0.23,37.93
19,-0.05,0.56,-0.15,39.38
19,-0.05,0.56,-0.01,39.26
19,-0.01,0.95,-0.01,39.26
19,0.02,1.62,0.25,37.69
19,0.02,1.61,-0.07,39.45
19,-0.06,0.79,-0.07,39.16
19,0.05,0.73,0.00,39.95
19,0.05,0.72,0.17,39.45
19,0.09,1.22,0.17,39.13
19,-0.06,0.68,-0.11,39.13
19,-0.06,0.86,-0.03,39.10
19,-0.03,0.86,-0.03,39.89
19,0.02,1.51,0.20,39.89
19,0.04,1.02,0.02,39.64
19,-0.08,1.02,0.04,39.28
19,0.03,0.70,-0.02,39.28
19,0.04,1.11,0.16,39.75
19,0.10,1.11,-0.04,41.39
19,-0.01,0.90,-0.04,41.39
19,-0.08,0.83,-0.08,40.31
19,-0.08,0.83,0.15,40.74
19,-0.00,1.40,0.15,40.74
19,-0.06,1.29,0.08,37.03
19,-0.06,1.29,-0.06,39.59
19,-0.07,0.67,-0.06,39.80
19,0.10,0.95,0.12,38.24
19,0.10,1.06,0.05,38.35
19,0.04,1.06,0.05,38.51
19,-0.05,0.73,-0.11,38.51
19,-0.05,1.20,0.12,41.03
19,0.02,1.20,0.12,37.91
19,-0.00,1.53,0.15,37.91
19,-0.00,0.62,-0.10,41.32
19,-0.07,0.62,-0.12,38.74
19,0.07,0.81,0.07,38.74
19,0.06,1.24,0.10,38.30
19,0.06,1.24,-0.15,40.95
19,-0.04,0.62,-0.15,40.95
19,-0.02,1.13,0.08,39.79
19,-0.02,1.13,0.25,39.46
19,0.01,1.67,0.25,39.82
19,-0.07,0.62,-0.12,37.47
19,-0.07,0.61,0.07,39.59
19,0.05,0.80,0.07,39.70
19,0.08,1.38,0.19,41.26
19,0.08,0.59,-0.17,38.16
19,-0.05,0.59,-0.17,37.75
19,-0.05,1.08,0.06,37.75
19,-0.05,1.72,0.25,39.74
19,0.01,1.72,0.25,39.31
19,-0.05,0.66,-0.13,39.31
19,-0.02,0.77,0.04,41.53
19,0.04,0.77,0.05,39.86
19,0.08,1.34,0.24,39.86
19,-0.06,0.61,-0.15,41.06
19,-0.06,0.61,0.00,40.66
19,-0.03,0.95,0.00,40.66
19,0.01,1.59,0.23,41.33
19,0.01,1.58,-0.08,41.58
19,-0.04,0.77,-0.08,41.82
19,0.07,0.73,0.01,41.04
19,0.07,0.74,0.19,37.84
19,0.08,1.24,0.19,38.02
19,-0.06,0.71,-0.09,40.37
19,-0.06,0.87,-0.02,39.79
19,-0.03,0.87,-0.02,37.64
19,0.01,1.48,0.19,37.64
19,0.04,0.99,0.00,38.88
19,-0.08,0.99,0.06,38.73
19,0.04,0.73,-0.00,38.73
19,0.05,1.10,0.17,38.61
19,0.11,1.10,-0.03,37.62
19,-0.02,0.91,-0.03,37.62
19,-0.08,0.81,-0.07,38.00
19,-0.08,0.81,0.14,38.70
19,-0.02,1.36,0.14,38.70
19,-0.05,1.27,0.07,39.57
19,-0.05,1.26,-0.05,38.76
19,-0.07,0.70,-0.05,38.85
19,0.11,0.98,0.13,38.07
19,0.11,1.06,0.04,38.63
19,0.05,1.06,0.04,39.39
19,-0.07,0.69,-0.12,39.39
19,-0.07,1.21,0.10,40.50
19,0.00,1.21,0.10,40.89
19,-0.01,1.50,0.15,40.89
19,-0.01,0.64,-0.09,40.69
19,-0.07,0.64,-0.12,38.35
19,0.07,0.82,0.07,38.35
19,0.06,1.22,0.10,39.17
19,0.06,1.22,-0.15,40.09
19,-0.05,0.59,-0.15,40.09
19,-0.02,1.12,0.09,39.63
19,-0.02,1.12,0.26,39.46
19,0.02,1.68,0.26,39.49
19,-0.04,0.66,-0.11,39.49
19,-0.04,0.65,0.08,38.91
19,0.05,0.78,0.08,39.00
19,0.08,1.35,0.17,37.43
19,0.08,0.55,-0.18,38.06
19,-0.05,0.55,-0.18,40.18
19,-0.04,1.07,0.06,40.18
19,-0.04,1.75,0.27,38.70
19,0.02,1.75,0.26,38.69
19,-0.04,0.65,-0.12,38.69
19,-0.02,0.78,0.03,40.78
19,0.04,0.78,0.03,40.68
19,0.09,1.31,0.22,40.68
19,-0.06,0.58,-0.15,38.02
19,-0.06,0.58,0.01,38.23
19,-0.02,0.97,0.01,38.23
19,0.01,1.61,0.24,37.59
19,0.01,1.58,-0.07,39.49
19,-0.05,0.77,-0.07,39.57
19,0.07,0.71,0.00,39.57
19,0.07,0.72,0.17,39.75
19,0.08,1.22,0.17,39.35
19,-0.06,0.72,-0.10,39.35
19,-0.06,0.86,-0.03,39.54
19,-0.04,0.86,-0.03,39.35
19,0.01,1.48,0.19,39.35
19,0.05,0.98,0.00,41.24
19,-0.08,0.98,0.05,40.65
19,0.04,0.70,-0.01,40.65
19,0.04,1.12,0.17,39.93
19,0.10,1.12,-0.03,42.02
19,-0.01,0.94,-0.03,42.02
19,-0.07,0.82,-0.07,39.58
19,-0.07,0.82,0.14,42.28
19,-0.01,1.36,0.14,42.28
19,-0.03,1.25,0.06,38.51
19,-0.03,1.23,-0.06,41.19
19,-0.06,0.67,-0.06,41.00
19,0.11,0.96,0.13,39.43
19,0.11,1.09,0.06,38.63
19,0.05,1.09,0.06,38.04
19,-0.06,0.71,-0.12,38.04
19,-0.06,1.15,0.10,39.34
19,0.03,1.15,0.10,39.06
19,0.01,1.51,0.15,39.06
19,0.00,0.64,-0.09,38.75
19,-0.06,0.64,-0.10,41.37
19,0.06,0.85,0.09,41.37
19,0.06,1.26,0.10,41.05
19,0.06,1.26,-0.16,37.79
19,-0.04,0.58,-0.16,37.79
19,-0.02,1.09,0.07,39.75
19,-0.02,1.09,0.25,39.24
